{
  "resourceType": "Bundle",
  "id": "tests-b203d4af-3937-4fb3-a7c0-6014d18f433d-bundle",
  "type": "transaction",
  "entry": [ {
    "fullUrl": "https://madie.cms.gov/Procedure/032a5966-5dfe-4f9f-9972-a739f4913c08",
    "resource": {
      "resourceType": "Procedure",
      "id": "032a5966-5dfe-4f9f-9972-a739f4913c08",
      "meta": {
        "profile": [ "http://hl7.org/fhir/us/qicore/StructureDefinition/qicore-procedure" ]
      },
      "extension": [ {
        "url": "http://hl7.org/fhir/us/qicore/StructureDefinition/qicore-recorded",
        "valueDateTime": "2026-04-11T10:30:00.000Z"
      } ],
      "status": "completed",
      "category": {
        "coding": [ {
          "system": "http://snomed.info/sct",
          "code": "18286008",
          "display": "General or neuraxial anesthesia"
        } ]
      },
      "code": {
        "coding": [ {
          "system": "http://snomed.info/sct",
          "code": "112943005",
          "display": "Epidural injection of anesthetic substance, diagnostic, caudal, continuous"
        } ]
      },
      "subject": {
        "reference": "Patient/b203d4af-3937-4fb3-a7c0-6014d18f433d"
      },
      "performedPeriod": {
        "start": "2026-04-11T08:00:00.000Z",
        "end": "2026-04-11T10:15:00.000Z"
      }
    },
    "request": {
      "method": "PUT",
      "url": "Procedure/032a5966-5dfe-4f9f-9972-a739f4913c08"
    }
  }, {
    "fullUrl": "https://madie.cms.gov/Procedure/32c23ad2-f93d-4ba3-b2af-de5a5cd3e01e",
    "resource": {
      "resourceType": "Procedure",
      "id": "32c23ad2-f93d-4ba3-b2af-de5a5cd3e01e",
      "meta": {
        "profile": [ "http://hl7.org/fhir/us/qicore/StructureDefinition/qicore-procedure" ]
      },
      "extension": [ {
        "url": "http://hl7.org/fhir/us/qicore/StructureDefinition/qicore-recorded",
        "valueDateTime": "2026-04-21T12:00:00.000Z"
      } ],
      "status": "completed",
      "code": {
        "coding": [ {
          "system": "http://snomed.info/sct",
          "code": "271280005",
          "display": "Removal of endotracheal tube (procedure)"
        } ],
        "text": "Removal of endotracheal tube (procedure)"
      },
      "subject": {
        "reference": "Patient/b203d4af-3937-4fb3-a7c0-6014d18f433d"
      },
      "performedPeriod": {
        "start": "2026-04-21T11:30:00.000Z",
        "end": "2026-04-21T11:45:00.000Z"
      }
    },
    "request": {
      "method": "PUT",
      "url": "Procedure/32c23ad2-f93d-4ba3-b2af-de5a5cd3e01e"
    }
  }, {
    "fullUrl": "https://madie.cms.gov/Procedure/9325e8c9-1897-4fc5-bc06-45b93d5a0260",
    "resource": {
      "resourceType": "Procedure",
      "id": "9325e8c9-1897-4fc5-bc06-45b93d5a0260",
      "meta": {
        "profile": [ "http://hl7.org/fhir/us/qicore/StructureDefinition/qicore-procedure" ]
      },
      "extension": [ {
        "url": "http://hl7.org/fhir/us/qicore/StructureDefinition/qicore-recorded",
        "valueDateTime": "2026-04-11T10:10:00.000Z"
      } ],
      "status": "completed",
      "code": {
        "coding": [ {
          "system": "http://www.cms.gov/Medicare/Coding/ICD10",
          "code": "0BW10FZ",
          "display": "Revision of Tracheostomy Device in Trachea, Open Approach"
        } ],
        "text": "Revision of Tracheostomy Device in Trachea, Open Approach"
      },
      "subject": {
        "reference": "Patient/b203d4af-3937-4fb3-a7c0-6014d18f433d"
      },
      "performedDateTime": "2026-04-11T09:00:00.000Z"
    },
    "request": {
      "method": "PUT",
      "url": "Procedure/9325e8c9-1897-4fc5-bc06-45b93d5a0260"
    }
  }, {
    "fullUrl": "https://madie.cms.gov/Procedure/05b08ff6-abac-4535-93c1-308bf5a3e41a",
    "resource": {
      "resourceType": "Procedure",
      "id": "05b08ff6-abac-4535-93c1-308bf5a3e41a",
      "meta": {
        "profile": [ "http://hl7.org/fhir/us/qicore/StructureDefinition/qicore-procedure" ]
      },
      "extension": [ {
        "url": "http://hl7.org/fhir/us/qicore/StructureDefinition/qicore-recorded",
        "valueDateTime": "2026-04-11T10:30:00.000Z"
      } ],
      "status": "completed",
      "category": {
        "coding": [ {
          "system": "http://snomed.info/sct",
          "code": "18286008",
          "display": "General or neuraxial anesthesia"
        } ]
      },
      "code": {
        "coding": [ {
          "system": "http://snomed.info/sct",
          "code": "112943005",
          "display": "Epidural injection of anesthetic substance, diagnostic, caudal, continuous"
        } ]
      },
      "subject": {
        "reference": "Patient/b203d4af-3937-4fb3-a7c0-6014d18f433d"
      },
      "performedPeriod": {
        "start": "2026-04-19T08:00:00.000Z",
        "end": "2026-04-19T11:15:00.000Z"
      }
    },
    "request": {
      "method": "PUT",
      "url": "Procedure/05b08ff6-abac-4535-93c1-308bf5a3e41a"
    }
  }, {
    "fullUrl": "https://madie.cms.gov/Patient/b203d4af-3937-4fb3-a7c0-6014d18f433d",
    "resource": {
      "resourceType": "Patient",
      "id": "b203d4af-3937-4fb3-a7c0-6014d18f433d",
      "meta": {
        "profile": [ "http://hl7.org/fhir/us/qicore/StructureDefinition/qicore-patient" ]
      },
      "extension": [ {
        "url": "http://hl7.org/fhir/us/core/StructureDefinition/us-core-race",
        "extension": [ {
          "url": "ombCategory",
          "valueCoding": {
            "system": "urn:oid:2.16.840.1.113883.6.238",
            "code": "1002-5",
            "display": "American Indian or Alaska Native",
            "userSelected": true
          }
        }, {
          "url": "text",
          "valueString": "American Indian or Alaska Native"
        } ]
      }, {
        "url": "http://hl7.org/fhir/us/core/StructureDefinition/us-core-ethnicity",
        "extension": [ {
          "url": "ombCategory",
          "valueCoding": {
            "system": "urn:oid:2.16.840.1.113883.6.238",
            "code": "2186-5",
            "display": "Not Hispanic or Latino",
            "userSelected": true
          }
        }, {
          "url": "text",
          "valueString": "Not Hispanic or Latino"
        } ]
      } ],
      "identifier": [ {
        "type": {
          "coding": [ {
            "system": "http://terminology.hl7.org/CodeSystem/v2-0203",
            "code": "MR"
          } ]
        },
        "system": "https://bonnie-fhir.healthit.gov/",
        "value": "61152a3b98086b7a79cbd7c1"
      } ],
      "active": true,
      "name": [ {
        "use": "usual",
        "family": "DENEXFail",
        "given": [ "2Enc1stDenex2ndNumer" ]
      } ],
      "gender": "male",
      "birthDate": "1966-07-12"
    },
    "request": {
      "method": "PUT",
      "url": "Patient/b203d4af-3937-4fb3-a7c0-6014d18f433d"
    }
  }, {
    "fullUrl": "https://madie.cms.gov/Encounter/aa41c30a-739f-4669-928c-761670e253bf",
    "resource": {
      "resourceType": "Encounter",
      "id": "aa41c30a-739f-4669-928c-761670e253bf",
      "meta": {
        "profile": [ "http://hl7.org/fhir/us/qicore/StructureDefinition/qicore-encounter" ]
      },
      "status": "finished",
      "class": {
        "system": "http://terminology.hl7.org/CodeSystem/v3-ActCode",
        "code": "IMP",
        "display": "inpatient encounter"
      },
      "type": [ {
        "coding": [ {
          "system": "http://snomed.info/sct",
          "code": "112689000",
          "display": "Hospital admission, elective, with complete pre-admission work-up"
        } ],
        "text": "Hospital admission, elective, with complete pre-admission work-up"
      } ],
      "priority": {
        "coding": [ {
          "system": "http://snomed.info/sct",
          "code": "103390000"
        } ]
      },
      "subject": {
        "reference": "Patient/b203d4af-3937-4fb3-a7c0-6014d18f433d"
      },
      "period": {
        "start": "2026-04-10T08:00:00.000Z",
        "end": "2026-04-14T08:15:00.000Z"
      },
      "diagnosis": [ {
        "condition": {
          "reference": "Procedure/032a5966-5dfe-4f9f-9972-a739f4913c08"
        },
        "rank": 1
      } ]
    },
    "request": {
      "method": "PUT",
      "url": "Encounter/aa41c30a-739f-4669-928c-761670e253bf"
    }
  }, {
    "fullUrl": "https://madie.cms.gov/Encounter/9246dfbf-80ea-4a24-8516-a427c6031d6d",
    "resource": {
      "resourceType": "Encounter",
      "id": "9246dfbf-80ea-4a24-8516-a427c6031d6d",
      "meta": {
        "profile": [ "http://hl7.org/fhir/us/qicore/StructureDefinition/qicore-encounter" ]
      },
      "status": "finished",
      "class": {
        "system": "http://terminology.hl7.org/CodeSystem/v3-ActCode",
        "code": "IMP",
        "display": "inpatient encounter"
      },
      "type": [ {
        "coding": [ {
          "system": "http://snomed.info/sct",
          "code": "112689000",
          "display": "Hospital admission, elective, with complete pre-admission work-up"
        } ],
        "text": "Hospital admission, elective, with complete pre-admission work-up"
      } ],
      "priority": {
        "coding": [ {
          "system": "http://snomed.info/sct",
          "code": "103390000"
        } ]
      },
      "subject": {
        "reference": "Patient/b203d4af-3937-4fb3-a7c0-6014d18f433d"
      },
      "period": {
        "start": "2026-04-18T08:00:00.000Z",
        "end": "2026-04-23T08:15:00.000Z"
      }
    },
    "request": {
      "method": "PUT",
      "url": "Encounter/9246dfbf-80ea-4a24-8516-a427c6031d6d"
    }
  }, {
    "fullUrl": "https://madie.cms.gov/MeasureReport/48c170f3-51f1-4897-b6a4-7d65880111bd",
    "resource": {
      "resourceType": "MeasureReport",
      "id": "48c170f3-51f1-4897-b6a4-7d65880111bd",
      "meta": {
        "profile": [ "http://hl7.org/fhir/us/cqfmeasures/StructureDefinition/test-case-cqfm" ]
      },
      "contained": [ {
        "resourceType": "Parameters",
        "id": "ef63ff0e-3711-4a34-82f1-af8eca8e37b2-parameters",
        "parameter": [ {
          "name": "subject",
          "valueString": "b203d4af-3937-4fb3-a7c0-6014d18f433d"
        } ]
      } ],
      "extension": [ {
        "url": "http://hl7.org/fhir/StructureDefinition/cqf-inputParameters",
        "valueReference": {
          "reference": "#ef63ff0e-3711-4a34-82f1-af8eca8e37b2-parameters"
        }
      }, {
        "url": "http://hl7.org/fhir/us/cqfmeasures/StructureDefinition/cqfm-testCaseDescription",
        "valueMarkdown": "Enc 1: Elective hosp with trach proc during anesthesia period. No other proc occurs. Meets exclusion.\nEnc 2: Intubated during first proc, extubated >48 hrs after end of first proc. Meets Num 3.  Denex from 1st enc does not impact 2nd encounter.\n"
      } ],
      "modifierExtension": [ {
        "url": "http://hl7.org/fhir/us/cqfmeasures/StructureDefinition/cqfm-isTestCase",
        "valueBoolean": true
      } ],
      "status": "complete",
      "type": "individual",
      "measure": "https://madie.cms.gov/Measure/CMS1218FHIRHHRF",
      "period": {
        "start": "2026-01-01",
        "end": "2026-12-31"
      },
      "group": [ {
        "id": "Group_1",
        "population": [ {
          "id": "InitialPopulation_1",
          "code": {
            "coding": [ {
              "system": "http://terminology.hl7.org/CodeSystem/measure-population",
              "code": "initial-population",
              "display": "Initial Population"
            } ]
          },
          "count": 2
        }, {
          "id": "Denominator_1",
          "code": {
            "coding": [ {
              "system": "http://terminology.hl7.org/CodeSystem/measure-population",
              "code": "denominator",
              "display": "Denominator"
            } ]
          },
          "count": 2
        }, {
          "id": "DenominatorExclusion_1",
          "code": {
            "coding": [ {
              "system": "http://terminology.hl7.org/CodeSystem/measure-population",
              "code": "denominator-exclusion",
              "display": "Denominator Exclusion"
            } ]
          },
          "count": 1
        }, {
          "id": "Numerator_1",
          "code": {
            "coding": [ {
              "system": "http://terminology.hl7.org/CodeSystem/measure-population",
              "code": "numerator",
              "display": "Numerator"
            } ]
          },
          "count": 1
        } ],
        "measureScore": {
          "value": 0.0
        }
      } ],
      "evaluatedResource": [ {
        "reference": "Procedure/032a5966-5dfe-4f9f-9972-a739f4913c08"
      }, {
        "reference": "Procedure/32c23ad2-f93d-4ba3-b2af-de5a5cd3e01e"
      }, {
        "reference": "Procedure/9325e8c9-1897-4fc5-bc06-45b93d5a0260"
      }, {
        "reference": "Procedure/05b08ff6-abac-4535-93c1-308bf5a3e41a"
      }, {
        "reference": "Patient/b203d4af-3937-4fb3-a7c0-6014d18f433d"
      }, {
        "reference": "Encounter/aa41c30a-739f-4669-928c-761670e253bf"
      }, {
        "reference": "Encounter/9246dfbf-80ea-4a24-8516-a427c6031d6d"
      } ]
    },
    "request": {
      "method": "PUT",
      "url": "MeasureReport/48c170f3-51f1-4897-b6a4-7d65880111bd"
    }
  } ]
}