{
  "resourceType": "Bundle",
  "id": "tests-a65e5180-3578-4013-bdc2-925e1af1e627-bundle",
  "type": "transaction",
  "entry": [ {
    "fullUrl": "https://madie.cms.gov/Encounter/53cbc575-d0a4-4e73-9f50-7a564281abad",
    "resource": {
      "resourceType": "Encounter",
      "id": "53cbc575-d0a4-4e73-9f50-7a564281abad",
      "meta": {
        "profile": [ "http://hl7.org/fhir/us/qicore/StructureDefinition/qicore-encounter" ]
      },
      "status": "finished",
      "class": {
        "system": "http://terminology.hl7.org/CodeSystem/v3-ActCode",
        "code": "IMP",
        "display": "inpatient encounter"
      },
      "type": [ {
        "coding": [ {
          "system": "http://snomed.info/sct",
          "code": "112689000",
          "display": "Hospital admission, elective, with complete pre-admission work-up"
        } ],
        "text": "Hospital admission, elective, with complete pre-admission work-up"
      } ],
      "priority": {
        "coding": [ {
          "system": "http://snomed.info/sct",
          "code": "103390000"
        } ]
      },
      "subject": {
        "reference": "Patient/a65e5180-3578-4013-bdc2-925e1af1e627"
      },
      "period": {
        "start": "2026-04-10T08:00:00.000+00:00",
        "end": "2026-04-14T08:15:00.000+00:00"
      },
      "diagnosis": [ {
        "condition": {
          "reference": "Procedure/610d9493-152f-4c3e-b683-00ab66ae69e7"
        },
        "rank": 1
      } ]
    },
    "request": {
      "method": "PUT",
      "url": "Encounter/53cbc575-d0a4-4e73-9f50-7a564281abad"
    }
  }, {
    "fullUrl": "https://madie.cms.gov/Procedure/610d9493-152f-4c3e-b683-00ab66ae69e7",
    "resource": {
      "resourceType": "Procedure",
      "id": "610d9493-152f-4c3e-b683-00ab66ae69e7",
      "meta": {
        "profile": [ "http://hl7.org/fhir/us/qicore/StructureDefinition/qicore-procedure" ]
      },
      "extension": [ {
        "url": "http://hl7.org/fhir/us/qicore/StructureDefinition/qicore-recorded",
        "valueDateTime": "2026-04-11T10:30:00.000+00:00"
      } ],
      "status": "completed",
      "category": {
        "coding": [ {
          "system": "http://snomed.info/sct",
          "code": "18286008",
          "display": "General or neuraxial anesthesia"
        } ]
      },
      "code": {
        "coding": [ {
          "system": "http://snomed.info/sct",
          "code": "112943005",
          "display": "Epidural injection of anesthetic substance, diagnostic, caudal, continuous"
        } ]
      },
      "subject": {
        "reference": "Patient/a65e5180-3578-4013-bdc2-925e1af1e627"
      },
      "performedPeriod": {
        "start": "2026-04-12T08:00:00.000+00:00",
        "end": "2026-04-12T10:15:00.000+00:00"
      }
    },
    "request": {
      "method": "PUT",
      "url": "Procedure/610d9493-152f-4c3e-b683-00ab66ae69e7"
    }
  }, {
    "fullUrl": "https://madie.cms.gov/Encounter/fbe68eae-1c24-4361-847a-7adee8cd1faa",
    "resource": {
      "resourceType": "Encounter",
      "id": "fbe68eae-1c24-4361-847a-7adee8cd1faa",
      "meta": {
        "profile": [ "http://hl7.org/fhir/us/qicore/StructureDefinition/qicore-encounter" ]
      },
      "status": "finished",
      "class": {
        "system": "http://terminology.hl7.org/CodeSystem/v3-ActCode",
        "code": "IMP",
        "display": "inpatient encounter"
      },
      "type": [ {
        "coding": [ {
          "system": "http://snomed.info/sct",
          "code": "112689000",
          "display": "Hospital admission, elective, with complete pre-admission work-up"
        } ],
        "text": "Hospital admission, elective, with complete pre-admission work-up"
      } ],
      "priority": {
        "coding": [ {
          "system": "http://snomed.info/sct",
          "code": "103390000"
        } ]
      },
      "subject": {
        "reference": "Patient/a65e5180-3578-4013-bdc2-925e1af1e627"
      },
      "period": {
        "start": "2026-04-19T08:00:00.000+00:00",
        "end": "2026-04-23T08:15:00.000+00:00"
      },
      "diagnosis": [ {
        "condition": {
          "reference": "Procedure/3916fdb0-4bd1-4a15-8875-38699f2609b5"
        },
        "rank": 1
      } ]
    },
    "request": {
      "method": "PUT",
      "url": "Encounter/fbe68eae-1c24-4361-847a-7adee8cd1faa"
    }
  }, {
    "fullUrl": "https://madie.cms.gov/Procedure/3916fdb0-4bd1-4a15-8875-38699f2609b5",
    "resource": {
      "resourceType": "Procedure",
      "id": "3916fdb0-4bd1-4a15-8875-38699f2609b5",
      "meta": {
        "profile": [ "http://hl7.org/fhir/us/qicore/StructureDefinition/qicore-procedure" ]
      },
      "extension": [ {
        "url": "http://hl7.org/fhir/us/qicore/StructureDefinition/qicore-recorded",
        "valueDateTime": "2026-04-11T10:30:00.000+00:00"
      } ],
      "status": "completed",
      "category": {
        "coding": [ {
          "system": "http://snomed.info/sct",
          "code": "18286008",
          "display": "General or neuraxial anesthesia"
        } ]
      },
      "code": {
        "coding": [ {
          "system": "http://snomed.info/sct",
          "code": "112943005",
          "display": "Epidural injection of anesthetic substance, diagnostic, caudal, continuous"
        } ]
      },
      "subject": {
        "reference": "Patient/a65e5180-3578-4013-bdc2-925e1af1e627"
      },
      "performedDateTime": "2026-04-19T11:00:00.000+00:00"
    },
    "request": {
      "method": "PUT",
      "url": "Procedure/3916fdb0-4bd1-4a15-8875-38699f2609b5"
    }
  }, {
    "fullUrl": "https://madie.cms.gov/Procedure/6b010361-f9a5-4b22-a179-04148956037d",
    "resource": {
      "resourceType": "Procedure",
      "id": "6b010361-f9a5-4b22-a179-04148956037d",
      "meta": {
        "profile": [ "http://hl7.org/fhir/us/qicore/StructureDefinition/qicore-procedure" ]
      },
      "extension": [ {
        "url": "http://hl7.org/fhir/us/qicore/StructureDefinition/qicore-recorded",
        "valueDateTime": "2026-04-11T10:10:00.000+00:00"
      } ],
      "status": "completed",
      "code": {
        "coding": [ {
          "system": "http://www.cms.gov/Medicare/Coding/ICD10",
          "code": "0BW10FZ",
          "display": "Revision of Tracheostomy Device in Trachea, Open Approach"
        } ],
        "text": "Revision of Tracheostomy Device in Trachea, Open Approach"
      },
      "subject": {
        "reference": "Patient/a65e5180-3578-4013-bdc2-925e1af1e627"
      },
      "performedDateTime": "2026-04-11T10:00:00.000+00:00"
    },
    "request": {
      "method": "PUT",
      "url": "Procedure/6b010361-f9a5-4b22-a179-04148956037d"
    }
  }, {
    "fullUrl": "https://madie.cms.gov/Procedure/95e11d0c-7156-4e92-9345-920e9b81e3f2",
    "resource": {
      "resourceType": "Procedure",
      "id": "95e11d0c-7156-4e92-9345-920e9b81e3f2",
      "meta": {
        "profile": [ "http://hl7.org/fhir/us/qicore/StructureDefinition/qicore-procedure" ]
      },
      "extension": [ {
        "url": "http://hl7.org/fhir/us/qicore/StructureDefinition/qicore-recorded",
        "valueDateTime": "2026-04-20T08:10:00.000+00:00"
      } ],
      "status": "completed",
      "code": {
        "coding": [ {
          "system": "http://www.cms.gov/Medicare/Coding/ICD10",
          "code": "0BH13EZ",
          "display": "Insertion of Endotracheal Airway into Trachea, Percutaneous Approach"
        } ],
        "text": "Insertion of Endotracheal Airway into Trachea, Percutaneous Approach"
      },
      "subject": {
        "reference": "Patient/a65e5180-3578-4013-bdc2-925e1af1e627"
      },
      "performedDateTime": "2026-04-20T08:00:00.000+00:00"
    },
    "request": {
      "method": "PUT",
      "url": "Procedure/95e11d0c-7156-4e92-9345-920e9b81e3f2"
    }
  }, {
    "fullUrl": "https://madie.cms.gov/Patient/a65e5180-3578-4013-bdc2-925e1af1e627",
    "resource": {
      "resourceType": "Patient",
      "id": "a65e5180-3578-4013-bdc2-925e1af1e627",
      "meta": {
        "profile": [ "http://hl7.org/fhir/us/qicore/StructureDefinition/qicore-patient" ]
      },
      "extension": [ {
        "url": "http://hl7.org/fhir/us/core/StructureDefinition/us-core-race",
        "extension": [ {
          "url": "ombCategory",
          "valueCoding": {
            "system": "urn:oid:2.16.840.1.113883.6.238",
            "code": "2054-5",
            "display": "Black or African American",
            "userSelected": true
          }
        }, {
          "url": "text",
          "valueString": "Black or African American"
        } ]
      }, {
        "url": "http://hl7.org/fhir/us/core/StructureDefinition/us-core-ethnicity",
        "extension": [ {
          "url": "ombCategory",
          "valueCoding": {
            "system": "urn:oid:2.16.840.1.113883.6.238",
            "code": "2186-5",
            "display": "Not Hispanic or Latino",
            "userSelected": true
          }
        }, {
          "url": "text",
          "valueString": "Not Hispanic or Latino"
        } ]
      } ],
      "identifier": [ {
        "type": {
          "coding": [ {
            "system": "http://terminology.hl7.org/CodeSystem/v2-0203",
            "code": "MR"
          } ]
        },
        "system": "https://bonnie-fhir.healthit.gov/",
        "value": "61152a3b98086b7a79cbd7c1"
      } ],
      "active": true,
      "name": [ {
        "use": "usual",
        "family": "DENEXFail",
        "given": [ "1EncPaO2Exc2EncNum" ]
      } ],
      "gender": "female",
      "birthDate": "1966-07-12"
    },
    "request": {
      "method": "PUT",
      "url": "Patient/a65e5180-3578-4013-bdc2-925e1af1e627"
    }
  }, {
    "fullUrl": "https://madie.cms.gov/MeasureReport/630f278f-8ce7-4bac-8487-0882301aeb5c",
    "resource": {
      "resourceType": "MeasureReport",
      "id": "630f278f-8ce7-4bac-8487-0882301aeb5c",
      "meta": {
        "profile": [ "http://hl7.org/fhir/us/cqfmeasures/StructureDefinition/test-case-cqfm" ]
      },
      "contained": [ {
        "resourceType": "Parameters",
        "id": "7d08bfa7-8388-404e-8151-e1c30a5717bd-parameters",
        "parameter": [ {
          "name": "subject",
          "valueString": "a65e5180-3578-4013-bdc2-925e1af1e627"
        } ]
      } ],
      "extension": [ {
        "url": "http://hl7.org/fhir/StructureDefinition/cqf-inputParameters",
        "valueReference": {
          "reference": "#7d08bfa7-8388-404e-8151-e1c30a5717bd-parameters"
        }
      }, {
        "url": "http://hl7.org/fhir/us/cqfmeasures/StructureDefinition/cqfm-testCaseDescription",
        "valueMarkdown": "Enc 1: Elective hosp with trach before day of 1st OR proc (gen anesthesia).  Meets Exclusion.\nEnc 2: Elective hosp with intubation after OR proc (gen anesthesia). Meets Numerator 1. \nTesting to make sure Enc1 exclusion does not impact Enc2."
      } ],
      "modifierExtension": [ {
        "url": "http://hl7.org/fhir/us/cqfmeasures/StructureDefinition/cqfm-isTestCase",
        "valueBoolean": true
      } ],
      "status": "complete",
      "type": "individual",
      "measure": "https://madie.cms.gov/Measure/CMS1218FHIRHHRF",
      "period": {
        "start": "2026-01-01",
        "end": "2026-12-31"
      },
      "group": [ {
        "id": "Group_1",
        "population": [ {
          "id": "InitialPopulation_1",
          "code": {
            "coding": [ {
              "system": "http://terminology.hl7.org/CodeSystem/measure-population",
              "code": "initial-population",
              "display": "Initial Population"
            } ]
          },
          "count": 2
        }, {
          "id": "Denominator_1",
          "code": {
            "coding": [ {
              "system": "http://terminology.hl7.org/CodeSystem/measure-population",
              "code": "denominator",
              "display": "Denominator"
            } ]
          },
          "count": 2
        }, {
          "id": "DenominatorExclusion_1",
          "code": {
            "coding": [ {
              "system": "http://terminology.hl7.org/CodeSystem/measure-population",
              "code": "denominator-exclusion",
              "display": "Denominator Exclusion"
            } ]
          },
          "count": 1
        }, {
          "id": "Numerator_1",
          "code": {
            "coding": [ {
              "system": "http://terminology.hl7.org/CodeSystem/measure-population",
              "code": "numerator",
              "display": "Numerator"
            } ]
          },
          "count": 1
        } ],
        "measureScore": {
          "value": 0.0
        }
      } ],
      "evaluatedResource": [ {
        "reference": "Encounter/53cbc575-d0a4-4e73-9f50-7a564281abad"
      }, {
        "reference": "Procedure/610d9493-152f-4c3e-b683-00ab66ae69e7"
      }, {
        "reference": "Encounter/fbe68eae-1c24-4361-847a-7adee8cd1faa"
      }, {
        "reference": "Procedure/3916fdb0-4bd1-4a15-8875-38699f2609b5"
      }, {
        "reference": "Procedure/6b010361-f9a5-4b22-a179-04148956037d"
      }, {
        "reference": "Procedure/95e11d0c-7156-4e92-9345-920e9b81e3f2"
      }, {
        "reference": "Patient/a65e5180-3578-4013-bdc2-925e1af1e627"
      } ]
    },
    "request": {
      "method": "PUT",
      "url": "MeasureReport/630f278f-8ce7-4bac-8487-0882301aeb5c"
    }
  } ]
}