{
  "resourceType": "Bundle",
  "id": "tests-RiskVarPassFirstAST-bundle",
  "type": "transaction",
  "entry": [ {
    "fullUrl": "https://madie.cms.gov/Encounter/47ee0214-541a-468e-958e-7b9d0d15a2df",
    "resource": {
      "resourceType": "Encounter",
      "id": "47ee0214-541a-468e-958e-7b9d0d15a2df",
      "meta": {
        "profile": [ "http://hl7.org/fhir/us/qicore/StructureDefinition/qicore-encounter" ]
      },
      "status": "finished",
      "class": {
        "system": "http://terminology.hl7.org/CodeSystem/v3-ActCode",
        "code": "IMP",
        "display": "inpatient encounter"
      },
      "type": [ {
        "coding": [ {
          "system": "http://snomed.info/sct",
          "code": "112689000",
          "display": "Hospital admission, elective, with complete pre-admission work-up"
        } ],
        "text": "Hospital admission, elective, with complete pre-admission work-up"
      } ],
      "priority": {
        "coding": [ {
          "system": "http://snomed.info/sct",
          "code": "103390000"
        } ]
      },
      "subject": {
        "reference": "Patient/5dfd143a-78bc-405c-acf5-cdf906987ab2"
      },
      "period": {
        "start": "2026-04-10T08:00:00.000Z",
        "end": "2026-04-14T08:15:00.000Z"
      }
    },
    "request": {
      "method": "PUT",
      "url": "Encounter/47ee0214-541a-468e-958e-7b9d0d15a2df"
    }
  }, {
    "fullUrl": "https://madie.cms.gov/Observation/f4b925bf-e9e2-4480-97d2-8afa2abe9b9c",
    "resource": {
      "resourceType": "Observation",
      "id": "f4b925bf-e9e2-4480-97d2-8afa2abe9b9c",
      "meta": {
        "profile": [ "http://hl7.org/fhir/us/qicore/StructureDefinition/qicore-observation-lab" ]
      },
      "status": "final",
      "category": [ {
        "coding": [ {
          "system": "http://terminology.hl7.org/CodeSystem/observation-category",
          "code": "laboratory",
          "display": "Laboratory"
        } ],
        "text": "Laboratory"
      } ],
      "code": {
        "coding": [ {
          "system": "http://loinc.org",
          "code": "14627-4",
          "display": "Bicarbonate [Moles/volume] in Venous blood"
        } ]
      },
      "subject": {
        "reference": "Patient/5dfd143a-78bc-405c-acf5-cdf906987ab2"
      },
      "encounter": {
        "reference": "Encounter/47ee0214-541a-468e-958e-7b9d0d15a2df"
      },
      "effectiveDateTime": "2026-04-11T09:00:00.000Z",
      "valueQuantity": {
        "value": 32.1,
        "unit": "[IU]/L",
        "system": "http://unitsofmeasure.org",
        "code": "[IU]/L"
      }
    },
    "request": {
      "method": "PUT",
      "url": "Observation/f4b925bf-e9e2-4480-97d2-8afa2abe9b9c"
    }
  }, {
    "fullUrl": "https://madie.cms.gov/Observation/ab5b6cfe-65fa-4762-96dc-55d44afeec1a",
    "resource": {
      "resourceType": "Observation",
      "id": "ab5b6cfe-65fa-4762-96dc-55d44afeec1a",
      "meta": {
        "profile": [ "http://hl7.org/fhir/us/qicore/StructureDefinition/qicore-observation-lab" ]
      },
      "status": "final",
      "category": [ {
        "coding": [ {
          "system": "http://terminology.hl7.org/CodeSystem/observation-category",
          "code": "laboratory",
          "display": "Laboratory"
        } ],
        "text": "Laboratory"
      } ],
      "code": {
        "coding": [ {
          "system": "http://loinc.org",
          "version": "2.76",
          "code": "88112-8",
          "display": "Aspartate aminotransferase [Enzymatic activity/volume] in Serum or Plasma by No addition of P-5'-P"
        } ]
      },
      "subject": {
        "reference": "Patient/5dfd143a-78bc-405c-acf5-cdf906987ab2"
      },
      "encounter": {
        "reference": "Encounter/47ee0214-541a-468e-958e-7b9d0d15a2df"
      },
      "effectiveDateTime": "2026-04-11T08:00:00.000Z",
      "valueQuantity": {
        "value": 25.1,
        "unit": "[IU]/L",
        "system": "http://unitsofmeasure.org",
        "code": "[IU]/L"
      }
    },
    "request": {
      "method": "PUT",
      "url": "Observation/ab5b6cfe-65fa-4762-96dc-55d44afeec1a"
    }
  }, {
    "fullUrl": "https://madie.cms.gov/Patient/5dfd143a-78bc-405c-acf5-cdf906987ab2",
    "resource": {
      "resourceType": "Patient",
      "id": "5dfd143a-78bc-405c-acf5-cdf906987ab2",
      "meta": {
        "profile": [ "http://hl7.org/fhir/us/qicore/StructureDefinition/qicore-patient" ]
      },
      "extension": [ {
        "url": "http://hl7.org/fhir/us/core/StructureDefinition/us-core-race",
        "extension": [ {
          "url": "ombCategory",
          "valueCoding": {
            "system": "urn:oid:2.16.840.1.113883.6.238",
            "code": "2054-5",
            "display": "Black or African American",
            "userSelected": true
          }
        }, {
          "url": "text",
          "valueString": "Black or African American"
        } ]
      }, {
        "url": "http://hl7.org/fhir/us/core/StructureDefinition/us-core-ethnicity",
        "extension": [ {
          "url": "ombCategory",
          "valueCoding": {
            "system": "urn:oid:2.16.840.1.113883.6.238",
            "code": "2186-5",
            "display": "Not Hispanic or Latino",
            "userSelected": true
          }
        }, {
          "url": "text",
          "valueString": "Not Hispanic or Latino"
        } ]
      } ],
      "identifier": [ {
        "type": {
          "coding": [ {
            "system": "http://terminology.hl7.org/CodeSystem/v2-0203",
            "code": "MR"
          } ]
        },
        "system": "https://bonnie-fhir.healthit.gov/",
        "value": "61152a3b98086b7a79cbd7c1"
      } ],
      "active": true,
      "name": [ {
        "use": "usual",
        "family": "DENOMPass",
        "given": [ "RiskVariableASAClass" ]
      } ],
      "gender": "female",
      "birthDate": "1966-07-12"
    },
    "request": {
      "method": "PUT",
      "url": "Patient/5dfd143a-78bc-405c-acf5-cdf906987ab2"
    }
  }, {
    "fullUrl": "https://madie.cms.gov/Procedure/35a653a2-c930-4b3a-a1cd-49b0d4c82be0",
    "resource": {
      "resourceType": "Procedure",
      "id": "35a653a2-c930-4b3a-a1cd-49b0d4c82be0",
      "meta": {
        "profile": [ "http://hl7.org/fhir/us/qicore/StructureDefinition/qicore-procedure" ]
      },
      "extension": [ {
        "url": "http://hl7.org/fhir/us/qicore/StructureDefinition/qicore-recorded",
        "valueDateTime": "2026-04-11T10:30:00.000Z"
      } ],
      "status": "completed",
      "category": {
        "coding": [ {
          "system": "http://snomed.info/sct",
          "code": "18286008",
          "display": "General or neuraxial anesthesia"
        } ]
      },
      "code": {
        "coding": [ {
          "system": "http://snomed.info/sct",
          "code": "112943005",
          "display": "Epidural injection of anesthetic substance, diagnostic, caudal, continuous"
        } ]
      },
      "subject": {
        "reference": "Patient/5dfd143a-78bc-405c-acf5-cdf906987ab2"
      },
      "performedPeriod": {
        "start": "2026-04-11T08:00:00.000Z",
        "end": "2026-04-11T10:15:00.000Z"
      }
    },
    "request": {
      "method": "PUT",
      "url": "Procedure/35a653a2-c930-4b3a-a1cd-49b0d4c82be0"
    }
  }, {
    "fullUrl": "https://madie.cms.gov/MeasureReport/7dfb496b-2bad-403f-9304-33f595515706",
    "resource": {
      "resourceType": "MeasureReport",
      "id": "7dfb496b-2bad-403f-9304-33f595515706",
      "meta": {
        "profile": [ "http://hl7.org/fhir/us/cqfmeasures/StructureDefinition/test-case-cqfm" ]
      },
      "contained": [ {
        "resourceType": "Parameters",
        "id": "49acc7aa-aead-4d21-8f8b-94b1a5b600a1-parameters",
        "parameter": [ {
          "name": "subject",
          "valueString": "5dfd143a-78bc-405c-acf5-cdf906987ab2"
        } ]
      } ],
      "extension": [ {
        "url": "http://hl7.org/fhir/StructureDefinition/cqf-inputParameters",
        "valueReference": {
          "reference": "#49acc7aa-aead-4d21-8f8b-94b1a5b600a1-parameters"
        }
      }, {
        "url": "http://hl7.org/fhir/us/cqfmeasures/StructureDefinition/cqfm-testCaseDescription",
        "valueMarkdown": "DENOMPass. Satisfies First AST Lab risk variable"
      } ],
      "modifierExtension": [ {
        "url": "http://hl7.org/fhir/us/cqfmeasures/StructureDefinition/cqfm-isTestCase",
        "valueBoolean": true
      } ],
      "status": "complete",
      "type": "individual",
      "measure": "https://madie.cms.gov/Measure/CMS1218FHIRHHRF",
      "period": {
        "start": "2026-01-01",
        "end": "2026-12-31"
      },
      "group": [ {
        "id": "Group_1",
        "population": [ {
          "id": "InitialPopulation_1",
          "code": {
            "coding": [ {
              "system": "http://terminology.hl7.org/CodeSystem/measure-population",
              "code": "initial-population",
              "display": "Initial Population"
            } ]
          },
          "count": 1
        }, {
          "id": "Denominator_1",
          "code": {
            "coding": [ {
              "system": "http://terminology.hl7.org/CodeSystem/measure-population",
              "code": "denominator",
              "display": "Denominator"
            } ]
          },
          "count": 1
        }, {
          "id": "DenominatorExclusion_1",
          "code": {
            "coding": [ {
              "system": "http://terminology.hl7.org/CodeSystem/measure-population",
              "code": "denominator-exclusion",
              "display": "Denominator Exclusion"
            } ]
          },
          "count": 0
        }, {
          "id": "Numerator_1",
          "code": {
            "coding": [ {
              "system": "http://terminology.hl7.org/CodeSystem/measure-population",
              "code": "numerator",
              "display": "Numerator"
            } ]
          },
          "count": 0
        } ],
        "measureScore": {
          "value": 0.0
        }
      } ],
      "evaluatedResource": [ {
        "reference": "Encounter/47ee0214-541a-468e-958e-7b9d0d15a2df"
      }, {
        "reference": "Observation/f4b925bf-e9e2-4480-97d2-8afa2abe9b9c"
      }, {
        "reference": "Observation/ab5b6cfe-65fa-4762-96dc-55d44afeec1a"
      }, {
        "reference": "Patient/5dfd143a-78bc-405c-acf5-cdf906987ab2"
      }, {
        "reference": "Procedure/35a653a2-c930-4b3a-a1cd-49b0d4c82be0"
      } ]
    },
    "request": {
      "method": "PUT",
      "url": "MeasureReport/7dfb496b-2bad-403f-9304-33f595515706"
    }
  } ]
}