{
  "resourceType": "Bundle",
  "id": "tests-RiskVarPassFirstBicarbonate-bundle",
  "type": "transaction",
  "entry": [ {
    "fullUrl": "https://madie.cms.gov/Encounter/9b7efff9-056f-48ff-82ef-e3e41102b093",
    "resource": {
      "resourceType": "Encounter",
      "id": "9b7efff9-056f-48ff-82ef-e3e41102b093",
      "meta": {
        "profile": [ "http://hl7.org/fhir/us/qicore/StructureDefinition/qicore-encounter" ]
      },
      "status": "finished",
      "class": {
        "system": "http://terminology.hl7.org/CodeSystem/v3-ActCode",
        "code": "IMP",
        "display": "inpatient encounter"
      },
      "type": [ {
        "coding": [ {
          "system": "http://snomed.info/sct",
          "code": "112689000",
          "display": "Hospital admission, elective, with complete pre-admission work-up"
        } ],
        "text": "Hospital admission, elective, with complete pre-admission work-up"
      } ],
      "priority": {
        "coding": [ {
          "system": "http://snomed.info/sct",
          "code": "103390000"
        } ]
      },
      "subject": {
        "reference": "Patient/2bfea766-6c3c-487a-8c3e-8cab9966603f"
      },
      "period": {
        "start": "2026-04-10T08:00:00.000Z",
        "end": "2026-04-14T08:15:00.000Z"
      }
    },
    "request": {
      "method": "PUT",
      "url": "Encounter/9b7efff9-056f-48ff-82ef-e3e41102b093"
    }
  }, {
    "fullUrl": "https://madie.cms.gov/Observation/02969851-95c2-4fe2-9fdd-2f59a6107526",
    "resource": {
      "resourceType": "Observation",
      "id": "02969851-95c2-4fe2-9fdd-2f59a6107526",
      "meta": {
        "profile": [ "http://hl7.org/fhir/us/qicore/StructureDefinition/qicore-observation-lab" ]
      },
      "status": "final",
      "category": [ {
        "coding": [ {
          "system": "http://terminology.hl7.org/CodeSystem/observation-category",
          "code": "laboratory",
          "display": "Laboratory"
        } ],
        "text": "Laboratory"
      } ],
      "code": {
        "coding": [ {
          "system": "http://loinc.org",
          "code": "14627-4",
          "display": "Bicarbonate [Moles/volume] in Venous blood"
        } ]
      },
      "subject": {
        "reference": "Patient/2bfea766-6c3c-487a-8c3e-8cab9966603f"
      },
      "encounter": {
        "reference": "Encounter/9b7efff9-056f-48ff-82ef-e3e41102b093"
      },
      "effectiveDateTime": "2026-04-11T08:00:00.000Z",
      "valueQuantity": {
        "value": 28.3,
        "unit": "mmol/L",
        "system": "http://unitsofmeasure.org",
        "code": "mmol/L"
      }
    },
    "request": {
      "method": "PUT",
      "url": "Observation/02969851-95c2-4fe2-9fdd-2f59a6107526"
    }
  }, {
    "fullUrl": "https://madie.cms.gov/Observation/aa71ffac-d3c6-4a10-b62b-c327d953ac70",
    "resource": {
      "resourceType": "Observation",
      "id": "aa71ffac-d3c6-4a10-b62b-c327d953ac70",
      "meta": {
        "profile": [ "http://hl7.org/fhir/us/qicore/StructureDefinition/qicore-observation-lab" ]
      },
      "status": "final",
      "category": [ {
        "coding": [ {
          "system": "http://terminology.hl7.org/CodeSystem/observation-category",
          "code": "laboratory",
          "display": "Laboratory"
        } ],
        "text": "Laboratory"
      } ],
      "code": {
        "coding": [ {
          "system": "http://loinc.org",
          "code": "14627-4",
          "display": "Bicarbonate [Moles/volume] in Venous blood"
        } ]
      },
      "subject": {
        "reference": "Patient/2bfea766-6c3c-487a-8c3e-8cab9966603f"
      },
      "encounter": {
        "reference": "Encounter/9b7efff9-056f-48ff-82ef-e3e41102b093"
      },
      "effectiveDateTime": "2026-04-11T09:00:00.000Z",
      "valueQuantity": {
        "value": 30.1,
        "unit": "mmol/L",
        "system": "http://unitsofmeasure.org",
        "code": "mmol/L"
      }
    },
    "request": {
      "method": "PUT",
      "url": "Observation/aa71ffac-d3c6-4a10-b62b-c327d953ac70"
    }
  }, {
    "fullUrl": "https://madie.cms.gov/Patient/2bfea766-6c3c-487a-8c3e-8cab9966603f",
    "resource": {
      "resourceType": "Patient",
      "id": "2bfea766-6c3c-487a-8c3e-8cab9966603f",
      "meta": {
        "profile": [ "http://hl7.org/fhir/us/qicore/StructureDefinition/qicore-patient" ]
      },
      "extension": [ {
        "url": "http://hl7.org/fhir/us/core/StructureDefinition/us-core-race",
        "extension": [ {
          "url": "ombCategory",
          "valueCoding": {
            "system": "urn:oid:2.16.840.1.113883.6.238",
            "code": "2054-5",
            "display": "Black or African American",
            "userSelected": true
          }
        }, {
          "url": "text",
          "valueString": "Black or African American"
        } ]
      }, {
        "url": "http://hl7.org/fhir/us/core/StructureDefinition/us-core-ethnicity",
        "extension": [ {
          "url": "ombCategory",
          "valueCoding": {
            "system": "urn:oid:2.16.840.1.113883.6.238",
            "code": "2186-5",
            "display": "Not Hispanic or Latino",
            "userSelected": true
          }
        }, {
          "url": "text",
          "valueString": "Not Hispanic or Latino"
        } ]
      } ],
      "identifier": [ {
        "type": {
          "coding": [ {
            "system": "http://terminology.hl7.org/CodeSystem/v2-0203",
            "code": "MR"
          } ]
        },
        "system": "https://bonnie-fhir.healthit.gov/",
        "value": "61152a3b98086b7a79cbd7c1"
      } ],
      "active": true,
      "name": [ {
        "use": "usual",
        "family": "DENOMPass",
        "given": [ "RiskVariableASAClass" ]
      } ],
      "gender": "female",
      "birthDate": "1966-07-12"
    },
    "request": {
      "method": "PUT",
      "url": "Patient/2bfea766-6c3c-487a-8c3e-8cab9966603f"
    }
  }, {
    "fullUrl": "https://madie.cms.gov/Procedure/c95f5762-0485-4502-9b54-5c5eca8d6ef4",
    "resource": {
      "resourceType": "Procedure",
      "id": "c95f5762-0485-4502-9b54-5c5eca8d6ef4",
      "meta": {
        "profile": [ "http://hl7.org/fhir/us/qicore/StructureDefinition/qicore-procedure" ]
      },
      "extension": [ {
        "url": "http://hl7.org/fhir/us/qicore/StructureDefinition/qicore-recorded",
        "valueDateTime": "2026-04-11T10:30:00.000Z"
      } ],
      "status": "completed",
      "category": {
        "coding": [ {
          "system": "http://snomed.info/sct",
          "code": "18286008",
          "display": "General or neuraxial anesthesia"
        } ]
      },
      "code": {
        "coding": [ {
          "system": "http://snomed.info/sct",
          "code": "112943005",
          "display": "Epidural injection of anesthetic substance, diagnostic, caudal, continuous"
        } ]
      },
      "subject": {
        "reference": "Patient/2bfea766-6c3c-487a-8c3e-8cab9966603f"
      },
      "performedPeriod": {
        "start": "2026-04-11T08:00:00.000Z",
        "end": "2026-04-11T10:15:00.000Z"
      }
    },
    "request": {
      "method": "PUT",
      "url": "Procedure/c95f5762-0485-4502-9b54-5c5eca8d6ef4"
    }
  }, {
    "fullUrl": "https://madie.cms.gov/MeasureReport/c211307c-c59d-42f1-a5f1-086503a5d8d3",
    "resource": {
      "resourceType": "MeasureReport",
      "id": "c211307c-c59d-42f1-a5f1-086503a5d8d3",
      "meta": {
        "profile": [ "http://hl7.org/fhir/us/cqfmeasures/StructureDefinition/test-case-cqfm" ]
      },
      "contained": [ {
        "resourceType": "Parameters",
        "id": "b90f8ad4-031f-4c35-97b8-c7ebef4f34be-parameters",
        "parameter": [ {
          "name": "subject",
          "valueString": "2bfea766-6c3c-487a-8c3e-8cab9966603f"
        } ]
      } ],
      "extension": [ {
        "url": "http://hl7.org/fhir/StructureDefinition/cqf-inputParameters",
        "valueReference": {
          "reference": "#b90f8ad4-031f-4c35-97b8-c7ebef4f34be-parameters"
        }
      }, {
        "url": "http://hl7.org/fhir/us/cqfmeasures/StructureDefinition/cqfm-testCaseDescription",
        "valueMarkdown": "DENOMPass. Satisfies First Bicarbonate risk variable"
      } ],
      "modifierExtension": [ {
        "url": "http://hl7.org/fhir/us/cqfmeasures/StructureDefinition/cqfm-isTestCase",
        "valueBoolean": true
      } ],
      "status": "complete",
      "type": "individual",
      "measure": "https://madie.cms.gov/Measure/CMS1218FHIRHHRF",
      "period": {
        "start": "2026-01-01",
        "end": "2026-12-31"
      },
      "group": [ {
        "id": "Group_1",
        "population": [ {
          "id": "InitialPopulation_1",
          "code": {
            "coding": [ {
              "system": "http://terminology.hl7.org/CodeSystem/measure-population",
              "code": "initial-population",
              "display": "Initial Population"
            } ]
          },
          "count": 1
        }, {
          "id": "Denominator_1",
          "code": {
            "coding": [ {
              "system": "http://terminology.hl7.org/CodeSystem/measure-population",
              "code": "denominator",
              "display": "Denominator"
            } ]
          },
          "count": 1
        }, {
          "id": "DenominatorExclusion_1",
          "code": {
            "coding": [ {
              "system": "http://terminology.hl7.org/CodeSystem/measure-population",
              "code": "denominator-exclusion",
              "display": "Denominator Exclusion"
            } ]
          },
          "count": 0
        }, {
          "id": "Numerator_1",
          "code": {
            "coding": [ {
              "system": "http://terminology.hl7.org/CodeSystem/measure-population",
              "code": "numerator",
              "display": "Numerator"
            } ]
          },
          "count": 0
        } ],
        "measureScore": {
          "value": 0.0
        }
      } ],
      "evaluatedResource": [ {
        "reference": "Encounter/9b7efff9-056f-48ff-82ef-e3e41102b093"
      }, {
        "reference": "Observation/02969851-95c2-4fe2-9fdd-2f59a6107526"
      }, {
        "reference": "Observation/aa71ffac-d3c6-4a10-b62b-c327d953ac70"
      }, {
        "reference": "Patient/2bfea766-6c3c-487a-8c3e-8cab9966603f"
      }, {
        "reference": "Procedure/c95f5762-0485-4502-9b54-5c5eca8d6ef4"
      } ]
    },
    "request": {
      "method": "PUT",
      "url": "MeasureReport/c211307c-c59d-42f1-a5f1-086503a5d8d3"
    }
  } ]
}