{
  "resourceType": "Bundle",
  "id": "tests-077e122d-ed4d-4cf0-b665-1bf87710171d-bundle",
  "type": "transaction",
  "entry": [ {
    "fullUrl": "https://madie.cms.gov/Procedure/f04f3090-1a19-4472-9082-80ee8bc11ab8",
    "resource": {
      "resourceType": "Procedure",
      "id": "f04f3090-1a19-4472-9082-80ee8bc11ab8",
      "meta": {
        "profile": [ "http://hl7.org/fhir/us/qicore/StructureDefinition/qicore-procedure" ]
      },
      "extension": [ {
        "url": "http://hl7.org/fhir/us/qicore/StructureDefinition/qicore-recorded",
        "valueDateTime": "2026-04-11T10:30:00.000Z"
      } ],
      "status": "completed",
      "category": {
        "coding": [ {
          "system": "http://snomed.info/sct",
          "code": "18286008",
          "display": "General or neuraxial anesthesia"
        } ]
      },
      "code": {
        "coding": [ {
          "system": "http://snomed.info/sct",
          "code": "112943005",
          "display": "Epidural injection of anesthetic substance, diagnostic, caudal, continuous"
        } ]
      },
      "subject": {
        "reference": "Patient/077e122d-ed4d-4cf0-b665-1bf87710171d"
      },
      "performedPeriod": {
        "start": "2026-04-11T08:00:00.000Z",
        "end": "2026-04-11T10:15:00.000Z"
      }
    },
    "request": {
      "method": "PUT",
      "url": "Procedure/f04f3090-1a19-4472-9082-80ee8bc11ab8"
    }
  }, {
    "fullUrl": "https://madie.cms.gov/Encounter/7ef8df1f-4903-4c20-b4f7-81169b9fee9f",
    "resource": {
      "resourceType": "Encounter",
      "id": "7ef8df1f-4903-4c20-b4f7-81169b9fee9f",
      "meta": {
        "profile": [ "http://hl7.org/fhir/us/qicore/StructureDefinition/qicore-encounter" ]
      },
      "status": "finished",
      "class": {
        "system": "http://terminology.hl7.org/CodeSystem/v3-ActCode",
        "code": "IMP",
        "display": "inpatient encounter"
      },
      "type": [ {
        "coding": [ {
          "system": "http://snomed.info/sct",
          "code": "4525004",
          "display": "Emergency department patient visit"
        } ],
        "text": "Emergency department patient visit"
      } ],
      "subject": {
        "reference": "Patient/077e122d-ed4d-4cf0-b665-1bf87710171d"
      },
      "period": {
        "start": "2026-04-09T08:00:00.000Z",
        "end": "2026-04-10T06:59:00.000Z"
      }
    },
    "request": {
      "method": "PUT",
      "url": "Encounter/7ef8df1f-4903-4c20-b4f7-81169b9fee9f"
    }
  }, {
    "fullUrl": "https://madie.cms.gov/Encounter/f5673927-ae88-4f8e-b2a3-5668fa86cbb3",
    "resource": {
      "resourceType": "Encounter",
      "id": "f5673927-ae88-4f8e-b2a3-5668fa86cbb3",
      "meta": {
        "profile": [ "http://hl7.org/fhir/us/qicore/StructureDefinition/qicore-encounter" ]
      },
      "status": "finished",
      "class": {
        "system": "http://terminology.hl7.org/CodeSystem/v3-ActCode",
        "code": "IMP",
        "display": "inpatient encounter"
      },
      "type": [ {
        "coding": [ {
          "system": "http://snomed.info/sct",
          "code": "112689000",
          "display": "Hospital admission, elective, with complete pre-admission work-up"
        } ],
        "text": "Hospital admission, elective, with complete pre-admission work-up"
      } ],
      "priority": {
        "coding": [ {
          "system": "http://snomed.info/sct",
          "code": "103390000"
        } ]
      },
      "subject": {
        "reference": "Patient/077e122d-ed4d-4cf0-b665-1bf87710171d"
      },
      "period": {
        "start": "2026-04-10T08:00:00.000Z",
        "end": "2026-04-14T08:15:00.000Z"
      }
    },
    "request": {
      "method": "PUT",
      "url": "Encounter/f5673927-ae88-4f8e-b2a3-5668fa86cbb3"
    }
  }, {
    "fullUrl": "https://madie.cms.gov/Patient/077e122d-ed4d-4cf0-b665-1bf87710171d",
    "resource": {
      "resourceType": "Patient",
      "id": "077e122d-ed4d-4cf0-b665-1bf87710171d",
      "meta": {
        "profile": [ "http://hl7.org/fhir/us/qicore/StructureDefinition/qicore-patient" ]
      },
      "extension": [ {
        "url": "http://hl7.org/fhir/us/core/StructureDefinition/us-core-race",
        "extension": [ {
          "url": "ombCategory",
          "valueCoding": {
            "system": "urn:oid:2.16.840.1.113883.6.238",
            "code": "2106-3",
            "display": "White"
          }
        }, {
          "url": "detailed",
          "valueCoding": {
            "system": "urn:oid:2.16.840.1.113883.6.238",
            "code": "1586-7",
            "display": "Shoshone"
          }
        }, {
          "url": "text",
          "valueString": "White"
        } ]
      }, {
        "url": "http://hl7.org/fhir/us/core/StructureDefinition/us-core-ethnicity",
        "extension": [ {
          "url": "ombCategory",
          "valueCoding": {
            "system": "urn:oid:2.16.840.1.113883.6.238",
            "code": "2135-2",
            "display": "Hispanic or Latino"
          }
        }, {
          "url": "detailed",
          "valueCoding": {
            "system": "urn:oid:2.16.840.1.113883.6.238",
            "code": "1586-7",
            "display": "Shoshone"
          }
        }, {
          "url": "text",
          "valueString": "Hispanic or Latino"
        } ]
      }, {
        "url": "http://hl7.org/fhir/us/core/StructureDefinition/us-core-sex",
        "valueCode": "248153007"
      } ],
      "identifier": [ {
        "type": {
          "coding": [ {
            "system": "http://terminology.hl7.org/CodeSystem/v2-0203",
            "code": "MR"
          } ]
        },
        "system": "https://bonnie-fhir.healthit.gov/",
        "value": "61152a3b98086b7a79cbd7c1"
      } ],
      "active": true,
      "name": [ {
        "use": "usual",
        "family": "DENOMPass",
        "given": [ "EncWithEDVisitGTOneHrPrior" ]
      } ],
      "gender": "female",
      "birthDate": "1966-07-12"
    },
    "request": {
      "method": "PUT",
      "url": "Patient/077e122d-ed4d-4cf0-b665-1bf87710171d"
    }
  }, {
    "fullUrl": "https://madie.cms.gov/MeasureReport/a7f790c9-fcf8-4f83-a7b2-bb76cb3d0b33",
    "resource": {
      "resourceType": "MeasureReport",
      "id": "a7f790c9-fcf8-4f83-a7b2-bb76cb3d0b33",
      "meta": {
        "profile": [ "http://hl7.org/fhir/us/cqfmeasures/StructureDefinition/test-case-cqfm" ]
      },
      "contained": [ {
        "resourceType": "Parameters",
        "id": "1fe23d42-7fc4-413d-823e-44a4ea15325a-parameters",
        "parameter": [ {
          "name": "subject",
          "valueString": "077e122d-ed4d-4cf0-b665-1bf87710171d"
        } ]
      } ],
      "extension": [ {
        "url": "http://hl7.org/fhir/StructureDefinition/cqf-inputParameters",
        "valueReference": {
          "reference": "#1fe23d42-7fc4-413d-823e-44a4ea15325a-parameters"
        }
      }, {
        "url": "http://hl7.org/fhir/us/cqfmeasures/StructureDefinition/cqfm-testCaseDescription",
        "valueMarkdown": "Elective hospitalization with procedure (general anesthesia) within first 3 days of encounter. Has ED visit which ends > 1 hour before start of IP encounter. IPP/Denom pass."
      } ],
      "modifierExtension": [ {
        "url": "http://hl7.org/fhir/us/cqfmeasures/StructureDefinition/cqfm-isTestCase",
        "valueBoolean": true
      } ],
      "status": "complete",
      "type": "individual",
      "measure": "https://madie.cms.gov/Measure/CMS1218FHIRHHRF",
      "period": {
        "start": "2026-01-01",
        "end": "2026-12-31"
      },
      "group": [ {
        "id": "Group_1",
        "population": [ {
          "id": "InitialPopulation_1",
          "code": {
            "coding": [ {
              "system": "http://terminology.hl7.org/CodeSystem/measure-population",
              "code": "initial-population",
              "display": "Initial Population"
            } ]
          },
          "count": 1
        }, {
          "id": "Denominator_1",
          "code": {
            "coding": [ {
              "system": "http://terminology.hl7.org/CodeSystem/measure-population",
              "code": "denominator",
              "display": "Denominator"
            } ]
          },
          "count": 1
        }, {
          "id": "DenominatorExclusion_1",
          "code": {
            "coding": [ {
              "system": "http://terminology.hl7.org/CodeSystem/measure-population",
              "code": "denominator-exclusion",
              "display": "Denominator Exclusion"
            } ]
          },
          "count": 0
        }, {
          "id": "Numerator_1",
          "code": {
            "coding": [ {
              "system": "http://terminology.hl7.org/CodeSystem/measure-population",
              "code": "numerator",
              "display": "Numerator"
            } ]
          },
          "count": 0
        } ],
        "measureScore": {
          "value": 0.0
        }
      } ],
      "evaluatedResource": [ {
        "reference": "Procedure/f04f3090-1a19-4472-9082-80ee8bc11ab8"
      }, {
        "reference": "Encounter/7ef8df1f-4903-4c20-b4f7-81169b9fee9f"
      }, {
        "reference": "Encounter/f5673927-ae88-4f8e-b2a3-5668fa86cbb3"
      }, {
        "reference": "Patient/077e122d-ed4d-4cf0-b665-1bf87710171d"
      } ]
    },
    "request": {
      "method": "PUT",
      "url": "MeasureReport/a7f790c9-fcf8-4f83-a7b2-bb76cb3d0b33"
    }
  } ]
}