{
  "resourceType": "Bundle",
  "id": "tests-1f6b9700-837c-41c6-8117-02939ef57de8-bundle",
  "type": "transaction",
  "entry": [ {
    "fullUrl": "https://madie.cms.gov/Procedure/f52c1239-3ee0-4233-a668-3812d876578e",
    "resource": {
      "resourceType": "Procedure",
      "id": "f52c1239-3ee0-4233-a668-3812d876578e",
      "meta": {
        "profile": [ "http://hl7.org/fhir/us/qicore/StructureDefinition/qicore-procedure" ]
      },
      "extension": [ {
        "url": "http://hl7.org/fhir/us/qicore/StructureDefinition/qicore-recorded",
        "valueDateTime": "2026-04-11T10:30:00.000Z"
      } ],
      "status": "completed",
      "category": {
        "coding": [ {
          "system": "http://snomed.info/sct",
          "code": "18286008",
          "display": "General or neuraxial anesthesia"
        } ]
      },
      "code": {
        "coding": [ {
          "system": "http://snomed.info/sct",
          "code": "112943005",
          "display": "Epidural injection of anesthetic substance, diagnostic, caudal, continuous"
        } ]
      },
      "subject": {
        "reference": "Patient/1f6b9700-837c-41c6-8117-02939ef57de8"
      },
      "performedPeriod": {
        "start": "2026-04-11T08:00:00.000Z",
        "end": "2026-04-11T10:15:00.000Z"
      }
    },
    "request": {
      "method": "PUT",
      "url": "Procedure/f52c1239-3ee0-4233-a668-3812d876578e"
    }
  }, {
    "fullUrl": "https://madie.cms.gov/Patient/1f6b9700-837c-41c6-8117-02939ef57de8",
    "resource": {
      "resourceType": "Patient",
      "id": "1f6b9700-837c-41c6-8117-02939ef57de8",
      "meta": {
        "profile": [ "http://hl7.org/fhir/us/qicore/StructureDefinition/qicore-patient" ]
      },
      "extension": [ {
        "url": "http://hl7.org/fhir/us/core/StructureDefinition/us-core-race",
        "extension": [ {
          "url": "ombCategory",
          "valueCoding": {
            "system": "urn:oid:2.16.840.1.113883.6.238",
            "code": "2054-5",
            "display": "Black or African American",
            "userSelected": true
          }
        }, {
          "url": "text",
          "valueString": "Black or African American"
        } ]
      }, {
        "url": "http://hl7.org/fhir/us/core/StructureDefinition/us-core-ethnicity",
        "extension": [ {
          "url": "ombCategory",
          "valueCoding": {
            "system": "urn:oid:2.16.840.1.113883.6.238",
            "code": "2186-5",
            "display": "Not Hispanic or Latino",
            "userSelected": true
          }
        }, {
          "url": "text",
          "valueString": "Not Hispanic or Latino"
        } ]
      } ],
      "identifier": [ {
        "type": {
          "coding": [ {
            "system": "http://terminology.hl7.org/CodeSystem/v2-0203",
            "code": "MR"
          } ]
        },
        "system": "https://bonnie-fhir.healthit.gov/",
        "value": "61152a3b98086b7a79cbd7c1"
      } ],
      "active": true,
      "name": [ {
        "use": "usual",
        "family": "DENOMPass",
        "given": [ "RiskVFirstHemoglobinMmolLunits" ]
      } ],
      "gender": "female",
      "birthDate": "1966-07-12"
    },
    "request": {
      "method": "PUT",
      "url": "Patient/1f6b9700-837c-41c6-8117-02939ef57de8"
    }
  }, {
    "fullUrl": "https://madie.cms.gov/Observation/1d1b6c87-fec5-40d7-a464-586d18b4c01e",
    "resource": {
      "resourceType": "Observation",
      "id": "1d1b6c87-fec5-40d7-a464-586d18b4c01e",
      "meta": {
        "profile": [ "http://hl7.org/fhir/us/qicore/StructureDefinition/qicore-observation-lab" ]
      },
      "status": "final",
      "category": [ {
        "coding": [ {
          "system": "http://terminology.hl7.org/CodeSystem/observation-category",
          "code": "laboratory",
          "display": "Laboratory"
        } ],
        "text": "Laboratory"
      } ],
      "code": {
        "coding": [ {
          "system": "http://loinc.org",
          "code": "20509-6",
          "display": "Hemoglobin Lab Test"
        } ],
        "text": "Hemoglobin Lab Test"
      },
      "subject": {
        "reference": "Patient/1f6b9700-837c-41c6-8117-02939ef57de8"
      },
      "encounter": {
        "reference": "Encounter/d1e896f1-2dfb-4151-915d-fb2aa3658717"
      },
      "effectiveDateTime": "2026-04-11T08:00:00.000Z",
      "valueQuantity": {
        "value": 12,
        "unit": "mmol/L",
        "system": "http://unitsofmeasure.org",
        "code": "mmol/L"
      }
    },
    "request": {
      "method": "PUT",
      "url": "Observation/1d1b6c87-fec5-40d7-a464-586d18b4c01e"
    }
  }, {
    "fullUrl": "https://madie.cms.gov/Observation/41c4f3c6-8b11-4397-a1e3-8d9348aef5ed",
    "resource": {
      "resourceType": "Observation",
      "id": "41c4f3c6-8b11-4397-a1e3-8d9348aef5ed",
      "meta": {
        "profile": [ "http://hl7.org/fhir/us/qicore/StructureDefinition/qicore-observation-lab" ]
      },
      "status": "final",
      "category": [ {
        "coding": [ {
          "system": "http://terminology.hl7.org/CodeSystem/observation-category",
          "code": "laboratory",
          "display": "Laboratory"
        } ],
        "text": "Laboratory"
      } ],
      "code": {
        "coding": [ {
          "system": "http://loinc.org",
          "code": "20509-6",
          "display": "Hemoglobin Lab Test"
        } ],
        "text": "Hemoglobin Lab Test"
      },
      "subject": {
        "reference": "Patient/1f6b9700-837c-41c6-8117-02939ef57de8"
      },
      "encounter": {
        "reference": "Encounter/d1e896f1-2dfb-4151-915d-fb2aa3658717"
      },
      "effectiveDateTime": "2026-04-12T08:00:00.000Z",
      "valueQuantity": {
        "value": 15,
        "unit": "mmol/L",
        "system": "http://unitsofmeasure.org",
        "code": "mmol/L"
      }
    },
    "request": {
      "method": "PUT",
      "url": "Observation/41c4f3c6-8b11-4397-a1e3-8d9348aef5ed"
    }
  }, {
    "fullUrl": "https://madie.cms.gov/Encounter/d1e896f1-2dfb-4151-915d-fb2aa3658717",
    "resource": {
      "resourceType": "Encounter",
      "id": "d1e896f1-2dfb-4151-915d-fb2aa3658717",
      "meta": {
        "profile": [ "http://hl7.org/fhir/us/qicore/StructureDefinition/qicore-encounter" ]
      },
      "status": "finished",
      "class": {
        "system": "http://terminology.hl7.org/CodeSystem/v3-ActCode",
        "code": "IMP",
        "display": "inpatient encounter"
      },
      "type": [ {
        "coding": [ {
          "system": "http://snomed.info/sct",
          "code": "112689000",
          "display": "Hospital admission, elective, with complete pre-admission work-up"
        } ],
        "text": "Hospital admission, elective, with complete pre-admission work-up"
      } ],
      "priority": {
        "coding": [ {
          "system": "http://snomed.info/sct",
          "code": "103390000"
        } ]
      },
      "subject": {
        "reference": "Patient/1f6b9700-837c-41c6-8117-02939ef57de8"
      },
      "period": {
        "start": "2026-04-10T08:00:00.000Z",
        "end": "2026-04-14T08:15:00.000Z"
      }
    },
    "request": {
      "method": "PUT",
      "url": "Encounter/d1e896f1-2dfb-4151-915d-fb2aa3658717"
    }
  }, {
    "fullUrl": "https://madie.cms.gov/MeasureReport/1ec1eca1-d207-4491-b9f8-e183b557fbcb",
    "resource": {
      "resourceType": "MeasureReport",
      "id": "1ec1eca1-d207-4491-b9f8-e183b557fbcb",
      "meta": {
        "profile": [ "http://hl7.org/fhir/us/cqfmeasures/StructureDefinition/test-case-cqfm" ]
      },
      "contained": [ {
        "resourceType": "Parameters",
        "id": "76164ae0-c4e2-483d-bc6b-4724156cc89e-parameters",
        "parameter": [ {
          "name": "subject",
          "valueString": "1f6b9700-837c-41c6-8117-02939ef57de8"
        } ]
      } ],
      "extension": [ {
        "url": "http://hl7.org/fhir/StructureDefinition/cqf-inputParameters",
        "valueReference": {
          "reference": "#76164ae0-c4e2-483d-bc6b-4724156cc89e-parameters"
        }
      }, {
        "url": "http://hl7.org/fhir/us/cqfmeasures/StructureDefinition/cqfm-testCaseDescription",
        "valueMarkdown": "Elective hospitalization with procedure (general anesthesia) within first 3 days of encounter. Meets IPP/Denom. RV test includes 2 hemoglobin values; RV displays the first (12 mmol/L) not the second (15 mmol/L), as expected. \n"
      } ],
      "modifierExtension": [ {
        "url": "http://hl7.org/fhir/us/cqfmeasures/StructureDefinition/cqfm-isTestCase",
        "valueBoolean": true
      } ],
      "status": "complete",
      "type": "individual",
      "measure": "https://madie.cms.gov/Measure/CMS1218FHIRHHRF",
      "period": {
        "start": "2026-01-01",
        "end": "2026-12-31"
      },
      "group": [ {
        "id": "Group_1",
        "population": [ {
          "id": "InitialPopulation_1",
          "code": {
            "coding": [ {
              "system": "http://terminology.hl7.org/CodeSystem/measure-population",
              "code": "initial-population",
              "display": "Initial Population"
            } ]
          },
          "count": 1
        }, {
          "id": "Denominator_1",
          "code": {
            "coding": [ {
              "system": "http://terminology.hl7.org/CodeSystem/measure-population",
              "code": "denominator",
              "display": "Denominator"
            } ]
          },
          "count": 1
        }, {
          "id": "DenominatorExclusion_1",
          "code": {
            "coding": [ {
              "system": "http://terminology.hl7.org/CodeSystem/measure-population",
              "code": "denominator-exclusion",
              "display": "Denominator Exclusion"
            } ]
          },
          "count": 0
        }, {
          "id": "Numerator_1",
          "code": {
            "coding": [ {
              "system": "http://terminology.hl7.org/CodeSystem/measure-population",
              "code": "numerator",
              "display": "Numerator"
            } ]
          },
          "count": 0
        } ],
        "measureScore": {
          "value": 0.0
        }
      } ],
      "evaluatedResource": [ {
        "reference": "Procedure/f52c1239-3ee0-4233-a668-3812d876578e"
      }, {
        "reference": "Patient/1f6b9700-837c-41c6-8117-02939ef57de8"
      }, {
        "reference": "Observation/1d1b6c87-fec5-40d7-a464-586d18b4c01e"
      }, {
        "reference": "Observation/41c4f3c6-8b11-4397-a1e3-8d9348aef5ed"
      }, {
        "reference": "Encounter/d1e896f1-2dfb-4151-915d-fb2aa3658717"
      } ]
    },
    "request": {
      "method": "PUT",
      "url": "MeasureReport/1ec1eca1-d207-4491-b9f8-e183b557fbcb"
    }
  } ]
}