{
  "resourceType": "Bundle",
  "id": "tests-a82b589d-d741-4bc8-941c-9546a2b787e8-bundle",
  "type": "transaction",
  "entry": [ {
    "fullUrl": "https://madie.cms.gov/Encounter/d3402e6e-af3a-44b5-ae74-580c93d66d0f",
    "resource": {
      "resourceType": "Encounter",
      "id": "d3402e6e-af3a-44b5-ae74-580c93d66d0f",
      "meta": {
        "profile": [ "http://hl7.org/fhir/us/qicore/StructureDefinition/qicore-encounter" ]
      },
      "status": "finished",
      "class": {
        "system": "http://terminology.hl7.org/CodeSystem/v3-ActCode",
        "code": "IMP",
        "display": "inpatient encounter"
      },
      "type": [ {
        "coding": [ {
          "system": "http://snomed.info/sct",
          "code": "112689000"
        } ]
      } ],
      "priority": {
        "coding": [ {
          "system": "http://snomed.info/sct",
          "code": "103390000"
        } ]
      },
      "subject": {
        "reference": "Patient/a82b589d-d741-4bc8-941c-9546a2b787e8"
      },
      "period": {
        "start": "2026-04-10T08:00:00.000+00:00",
        "end": "2026-04-14T08:15:00.000+00:00"
      },
      "diagnosis": [ {
        "condition": {
          "reference": "Procedure/8cd48a76-dff3-401b-998d-9959775360a5"
        }
      } ]
    },
    "request": {
      "method": "PUT",
      "url": "Encounter/d3402e6e-af3a-44b5-ae74-580c93d66d0f"
    }
  }, {
    "fullUrl": "https://madie.cms.gov/Patient/a82b589d-d741-4bc8-941c-9546a2b787e8",
    "resource": {
      "resourceType": "Patient",
      "id": "a82b589d-d741-4bc8-941c-9546a2b787e8",
      "meta": {
        "profile": [ "http://hl7.org/fhir/us/qicore/StructureDefinition/qicore-patient" ]
      },
      "extension": [ {
        "url": "http://hl7.org/fhir/us/core/StructureDefinition/us-core-race",
        "extension": [ {
          "url": "ombCategory",
          "valueCoding": {
            "system": "urn:oid:2.16.840.1.113883.6.238",
            "code": "2028-9",
            "display": "Asian",
            "userSelected": true
          }
        }, {
          "url": "text",
          "valueString": "Asian"
        } ]
      }, {
        "url": "http://hl7.org/fhir/us/core/StructureDefinition/us-core-ethnicity",
        "extension": [ {
          "url": "ombCategory",
          "valueCoding": {
            "system": "urn:oid:2.16.840.1.113883.6.238",
            "code": "2186-5",
            "display": "Not Hispanic or Latino",
            "userSelected": true
          }
        }, {
          "url": "text",
          "valueString": "Not Hispanic or Latino"
        } ]
      } ],
      "identifier": [ {
        "type": {
          "coding": [ {
            "system": "http://terminology.hl7.org/CodeSystem/v2-0203",
            "code": "MR"
          } ]
        },
        "system": "https://bonnie-fhir.healthit.gov/",
        "value": "61152a3b98086b7a79cbd7c1"
      } ],
      "active": true,
      "name": [ {
        "use": "usual",
        "family": "IPPFail",
        "given": [ "ElecEncWithEDVisitEndDTSameAsIPStartDT" ]
      } ],
      "gender": "female",
      "birthDate": "1966-04-09"
    },
    "request": {
      "method": "PUT",
      "url": "Patient/a82b589d-d741-4bc8-941c-9546a2b787e8"
    }
  }, {
    "fullUrl": "https://madie.cms.gov/Encounter/aeea96cf-d947-4519-a052-b5e76915bab2",
    "resource": {
      "resourceType": "Encounter",
      "id": "aeea96cf-d947-4519-a052-b5e76915bab2",
      "meta": {
        "profile": [ "http://hl7.org/fhir/us/qicore/StructureDefinition/qicore-encounter" ]
      },
      "status": "finished",
      "class": {
        "system": "http://terminology.hl7.org/CodeSystem/v3-ActCode",
        "code": "EMER",
        "display": "emergency"
      },
      "type": [ {
        "coding": [ {
          "system": "http://snomed.info/sct",
          "code": "4525004"
        } ]
      } ],
      "subject": {
        "reference": "Patient/a82b589d-d741-4bc8-941c-9546a2b787e8"
      },
      "period": {
        "start": "2026-04-09T08:00:00.000+00:00",
        "end": "2026-04-10T08:00:00.000+00:00"
      }
    },
    "request": {
      "method": "PUT",
      "url": "Encounter/aeea96cf-d947-4519-a052-b5e76915bab2"
    }
  }, {
    "fullUrl": "https://madie.cms.gov/Procedure/8cd48a76-dff3-401b-998d-9959775360a5",
    "resource": {
      "resourceType": "Procedure",
      "id": "8cd48a76-dff3-401b-998d-9959775360a5",
      "meta": {
        "profile": [ "http://hl7.org/fhir/us/qicore/StructureDefinition/qicore-procedure" ]
      },
      "extension": [ {
        "url": "http://hl7.org/fhir/us/qicore/StructureDefinition/qicore-recorded",
        "valueDateTime": "2026-04-11T10:30:00.000+00:00"
      } ],
      "status": "completed",
      "category": {
        "coding": [ {
          "system": "http://snomed.info/sct",
          "code": "18286008",
          "display": "General or neuraxial anesthesia"
        } ]
      },
      "code": {
        "coding": [ {
          "system": "http://snomed.info/sct",
          "code": "112943005",
          "display": "Epidural injection of anesthetic substance, diagnostic, caudal, continuous"
        } ]
      },
      "subject": {
        "reference": "Patient/a82b589d-d741-4bc8-941c-9546a2b787e8"
      },
      "performedPeriod": {
        "start": "2026-04-11T08:00:00.000+00:00",
        "end": "2026-04-11T10:15:00.000+00:00"
      }
    },
    "request": {
      "method": "PUT",
      "url": "Procedure/8cd48a76-dff3-401b-998d-9959775360a5"
    }
  }, {
    "fullUrl": "https://madie.cms.gov/MeasureReport/d9c1782a-378f-4a20-b81a-47ebd6b7b5f8",
    "resource": {
      "resourceType": "MeasureReport",
      "id": "d9c1782a-378f-4a20-b81a-47ebd6b7b5f8",
      "meta": {
        "profile": [ "http://hl7.org/fhir/us/cqfmeasures/StructureDefinition/test-case-cqfm" ]
      },
      "contained": [ {
        "resourceType": "Parameters",
        "id": "b512b057-467c-4ff8-8bd9-8166df5ecd68-parameters",
        "parameter": [ {
          "name": "subject",
          "valueString": "a82b589d-d741-4bc8-941c-9546a2b787e8"
        } ]
      } ],
      "extension": [ {
        "url": "http://hl7.org/fhir/StructureDefinition/cqf-inputParameters",
        "valueReference": {
          "reference": "#b512b057-467c-4ff8-8bd9-8166df5ecd68-parameters"
        }
      }, {
        "url": "http://hl7.org/fhir/us/cqfmeasures/StructureDefinition/cqfm-testCaseDescription",
        "valueMarkdown": "Hospitalization (has 'elective' class) with procedure (general anesthesia) within first 3 days of encounter. ED visit ends same time as start of IP visit so Fails IPP. "
      } ],
      "modifierExtension": [ {
        "url": "http://hl7.org/fhir/us/cqfmeasures/StructureDefinition/cqfm-isTestCase",
        "valueBoolean": true
      } ],
      "status": "complete",
      "type": "individual",
      "measure": "https://madie.cms.gov/Measure/CMS1218FHIRHHRF",
      "period": {
        "start": "2026-01-01",
        "end": "2026-12-31"
      },
      "group": [ {
        "id": "Group_1",
        "population": [ {
          "id": "InitialPopulation_1",
          "code": {
            "coding": [ {
              "system": "http://terminology.hl7.org/CodeSystem/measure-population",
              "code": "initial-population",
              "display": "Initial Population"
            } ]
          },
          "count": 0
        }, {
          "id": "Denominator_1",
          "code": {
            "coding": [ {
              "system": "http://terminology.hl7.org/CodeSystem/measure-population",
              "code": "denominator",
              "display": "Denominator"
            } ]
          },
          "count": 0
        }, {
          "id": "DenominatorExclusion_1",
          "code": {
            "coding": [ {
              "system": "http://terminology.hl7.org/CodeSystem/measure-population",
              "code": "denominator-exclusion",
              "display": "Denominator Exclusion"
            } ]
          },
          "count": 0
        }, {
          "id": "Numerator_1",
          "code": {
            "coding": [ {
              "system": "http://terminology.hl7.org/CodeSystem/measure-population",
              "code": "numerator",
              "display": "Numerator"
            } ]
          },
          "count": 0
        } ],
        "measureScore": {
          "value": 0.0
        }
      } ],
      "evaluatedResource": [ {
        "reference": "Encounter/d3402e6e-af3a-44b5-ae74-580c93d66d0f"
      }, {
        "reference": "Patient/a82b589d-d741-4bc8-941c-9546a2b787e8"
      }, {
        "reference": "Encounter/aeea96cf-d947-4519-a052-b5e76915bab2"
      }, {
        "reference": "Procedure/8cd48a76-dff3-401b-998d-9959775360a5"
      } ]
    },
    "request": {
      "method": "PUT",
      "url": "MeasureReport/d9c1782a-378f-4a20-b81a-47ebd6b7b5f8"
    }
  } ]
}