{
  "resourceType": "Bundle",
  "id": "DENOMPass-RVMalignantBoneDiseaseDxPOA",
  "type": "transaction",
  "entry": [ {
    "fullUrl": "https://madie.cms.gov/Claim/72f7e473-90c8-45d6-8aea-6df5293dfe08",
    "resource": {
      "resourceType": "Claim",
      "id": "72f7e473-90c8-45d6-8aea-6df5293dfe08",
      "meta": {
        "profile": [ "http://hl7.org/fhir/us/qicore/StructureDefinition/qicore-claim" ]
      },
      "status": "active",
      "type": {
        "coding": [ {
          "system": "http://terminology.hl7.org/CodeSystem/claim-type",
          "code": "professional",
          "display": "Professional"
        } ]
      },
      "use": "claim",
      "patient": {
        "reference": "Patient/8552c09f-c2db-4069-9d15-41efafe4711a"
      },
      "created": "2026-12-12",
      "provider": {
        "reference": "Practitioner/a230e06c-63be-48eb-9275-2075de75eb20"
      },
      "priority": {
        "coding": [ {
          "system": "http://terminology.hl7.org/CodeSystem/processpriority",
          "code": "normal"
        } ]
      },
      "diagnosis": [ {
        "sequence": 1,
        "diagnosisCodeableConcept": {
          "coding": [ {
            "system": "http://hl7.org/fhir/sid/icd-10-cm",
            "code": "C40.00"
          } ]
        },
        "onAdmission": {
          "coding": [ {
            "system": "https://www.cms.gov/Medicare/Medicare-Fee-for-Service-Payment/HospitalAcqCond/Coding",
            "code": "Y"
          } ]
        }
      } ],
      "insurance": [ {
        "sequence": 1,
        "focal": true,
        "coverage": {
          "reference": "Coverage/7249fb90-fa6b-4c34-8f5f-b3e8a96a458c"
        }
      } ],
      "item": [ {
        "sequence": 1,
        "diagnosisSequence": [ 1, 2 ],
        "productOrService": {
          "coding": [ {
            "system": "http://terminology.hl7.org/CodeSystem/ex-USCLS",
            "code": "1101"
          } ]
        },
        "encounter": [ {
          "reference": "Encounter/fa4b2928-5ef2-4b83-b258-3ee66239ba59"
        } ]
      } ]
    },
    "request": {
      "method": "PUT",
      "url": "Claim/72f7e473-90c8-45d6-8aea-6df5293dfe08"
    }
  }, {
    "fullUrl": "https://madie.cms.gov/Patient/8552c09f-c2db-4069-9d15-41efafe4711a",
    "resource": {
      "resourceType": "Patient",
      "id": "8552c09f-c2db-4069-9d15-41efafe4711a",
      "meta": {
        "profile": [ "http://hl7.org/fhir/us/qicore/StructureDefinition/qicore-patient" ]
      },
      "extension": [ {
        "url": "http://hl7.org/fhir/us/core/StructureDefinition/us-core-race",
        "extension": [ {
          "url": "ombCategory",
          "valueCoding": {
            "system": "urn:oid:2.16.840.1.113883.6.238",
            "code": "1002-5",
            "display": "American Indian or Alaska Native",
            "userSelected": true
          }
        }, {
          "url": "text",
          "valueString": "American Indian or Alaska Native"
        } ]
      }, {
        "url": "http://hl7.org/fhir/us/core/StructureDefinition/us-core-ethnicity",
        "extension": [ {
          "url": "ombCategory",
          "valueCoding": {
            "system": "urn:oid:2.16.840.1.113883.6.238",
            "code": "2135-2",
            "display": "Hispanic or Latino",
            "userSelected": true
          }
        }, {
          "url": "text",
          "valueString": "Hispanic or Latino"
        } ]
      } ],
      "identifier": [ {
        "type": {
          "coding": [ {
            "system": "http://terminology.hl7.org/CodeSystem/v2-0203",
            "code": "MR"
          } ]
        },
        "system": "https://bonnie-fhir.healthit.gov/",
        "value": "61152a3b98086b7a79cbd7c1"
      } ],
      "active": true,
      "name": [ {
        "use": "usual",
        "family": "DENOMPass",
        "given": [ "RVDeliriumDxPOA" ]
      } ],
      "gender": "female",
      "birthDate": "1964-12-11"
    },
    "request": {
      "method": "PUT",
      "url": "Patient/8552c09f-c2db-4069-9d15-41efafe4711a"
    }
  }, {
    "fullUrl": "https://madie.cms.gov/Encounter/fa4b2928-5ef2-4b83-b258-3ee66239ba59",
    "resource": {
      "resourceType": "Encounter",
      "id": "fa4b2928-5ef2-4b83-b258-3ee66239ba59",
      "meta": {
        "profile": [ "http://hl7.org/fhir/us/qicore/StructureDefinition/qicore-encounter" ]
      },
      "status": "finished",
      "class": {
        "system": "http://terminology.hl7.org/CodeSystem/v3-ActCode",
        "code": "IMP",
        "display": "inpatient encounter"
      },
      "type": [ {
        "coding": [ {
          "system": "http://snomed.info/sct",
          "code": "183452005",
          "display": "Emergency hospital admission"
        } ]
      } ],
      "subject": {
        "reference": "Patient/8552c09f-c2db-4069-9d15-41efafe4711a"
      },
      "period": {
        "start": "2026-11-12T08:00:00.000+00:00",
        "end": "2026-11-18T08:01:00.000+00:00"
      },
      "length": {
        "value": 6,
        "unit": "days"
      }
    },
    "request": {
      "method": "PUT",
      "url": "Encounter/fa4b2928-5ef2-4b83-b258-3ee66239ba59"
    }
  }, {
    "fullUrl": "https://madie.cms.gov/Practitioner/a230e06c-63be-48eb-9275-2075de75eb20",
    "resource": {
      "resourceType": "Practitioner",
      "id": "a230e06c-63be-48eb-9275-2075de75eb20",
      "identifier": [ {
        "system": "http://www.cms.gov/identifiers/pracitioners",
        "value": "P12345"
      } ],
      "name": [ {
        "use": "official",
        "family": "Smith",
        "given": [ "John" ]
      } ],
      "qualification": [ {
        "identifier": [ {
          "system": "http://hl7.org/fhir/sid/us-npi",
          "value": "1234567890"
        } ],
        "code": {
          "coding": [ {
            "system": "http://terminology.hl7.org/CodeSystem/v2-0203",
            "code": "MD",
            "display": "Medical License number"
          } ]
        }
      } ]
    },
    "request": {
      "method": "PUT",
      "url": "Practitioner/a230e06c-63be-48eb-9275-2075de75eb20"
    }
  }, {
    "fullUrl": "https://madie.cms.gov/Coverage/7249fb90-fa6b-4c34-8f5f-b3e8a96a458c",
    "resource": {
      "resourceType": "Coverage",
      "id": "7249fb90-fa6b-4c34-8f5f-b3e8a96a458c",
      "status": "active",
      "beneficiary": {
        "reference": "Patient/8552c09f-c2db-4069-9d15-41efafe4711a"
      },
      "payor": [ {
        "reference": "Organization/277562bc-9a0f-4582-9abd-7d17cecaa4b5"
      } ]
    },
    "request": {
      "method": "PUT",
      "url": "Coverage/7249fb90-fa6b-4c34-8f5f-b3e8a96a458c"
    }
  }, {
    "fullUrl": "https://madie.cms.gov/Organization/277562bc-9a0f-4582-9abd-7d17cecaa4b5",
    "resource": {
      "resourceType": "Organization",
      "id": "277562bc-9a0f-4582-9abd-7d17cecaa4b5",
      "identifier": [ {
        "system": "http://cms.gov/insurance-ids",
        "value": "AET12345"
      } ],
      "type": [ {
        "coding": [ {
          "system": "http://terminology.hl7.org/CodeSystem/organization-type",
          "code": "prov",
          "display": "Healthcare Provider"
        } ]
      } ],
      "name": "Aetna Insurance",
      "telecom": [ {
        "system": "phone",
        "value": "+1-800-123-4567"
      } ],
      "address": [ {
        "line": [ "123 Main Street" ],
        "city": "Cityville",
        "state": "CA",
        "postalCode": "12345",
        "country": "USA"
      } ]
    },
    "request": {
      "method": "PUT",
      "url": "Organization/277562bc-9a0f-4582-9abd-7d17cecaa4b5"
    }
  }, {
    "fullUrl": "https://madie.cms.gov/MeasureReport/1720eba3-6a93-4faa-9b00-13f4d8b8f160",
    "resource": {
      "resourceType": "MeasureReport",
      "id": "1720eba3-6a93-4faa-9b00-13f4d8b8f160",
      "meta": {
        "profile": [ "http://hl7.org/fhir/us/cqfmeasures/StructureDefinition/test-case-cqfm" ]
      },
      "contained": [ {
        "resourceType": "Parameters",
        "id": "a3031ce0-7699-4e8b-a1ae-87cd2e160b11-parameters",
        "parameter": [ {
          "name": "subject",
          "valueString": "8552c09f-c2db-4069-9d15-41efafe4711a"
        } ]
      } ],
      "extension": [ {
        "url": "http://hl7.org/fhir/StructureDefinition/cqf-inputParameters",
        "valueReference": {
          "reference": "#a3031ce0-7699-4e8b-a1ae-87cd2e160b11-parameters"
        }
      }, {
        "url": "http://hl7.org/fhir/us/cqfmeasures/StructureDefinition/cqfm-testCaseDescription",
        "valueMarkdown": "Encounter with Malignant Bone Disease dx POA = Y. Meets RV"
      } ],
      "modifierExtension": [ {
        "url": "http://hl7.org/fhir/us/cqfmeasures/StructureDefinition/cqfm-isTestCase",
        "valueBoolean": true
      } ],
      "status": "complete",
      "type": "individual",
      "measure": "https://madie.cms.gov/Measure/CMS1017FHIRHHFI",
      "period": {
        "start": "2026-01-01",
        "end": "2026-12-31"
      },
      "group": [ {
        "id": "Group_1",
        "population": [ {
          "id": "InitialPopulation_1",
          "code": {
            "coding": [ {
              "system": "http://terminology.hl7.org/CodeSystem/measure-population",
              "code": "initial-population",
              "display": "Initial Population"
            } ]
          },
          "count": 1
        }, {
          "id": "Denominator_1",
          "code": {
            "coding": [ {
              "system": "http://terminology.hl7.org/CodeSystem/measure-population",
              "code": "denominator",
              "display": "Denominator"
            } ]
          },
          "count": 1
        }, {
          "id": "DenominatorExclusion_1",
          "code": {
            "coding": [ {
              "system": "http://terminology.hl7.org/CodeSystem/measure-population",
              "code": "denominator-exclusion",
              "display": "Denominator Exclusion"
            } ]
          },
          "count": 0
        }, {
          "id": "Numerator_1",
          "code": {
            "coding": [ {
              "system": "http://terminology.hl7.org/CodeSystem/measure-population",
              "code": "numerator",
              "display": "Numerator"
            } ]
          },
          "count": 0
        }, {
          "id": "NumeratorExclusion_1",
          "code": {
            "coding": [ {
              "system": "http://terminology.hl7.org/CodeSystem/measure-population",
              "code": "numerator-exclusion",
              "display": "Numerator Exclusion"
            } ]
          },
          "count": 0
        }, {
          "id": "MeasureObservation_1_1_1",
          "code": {
            "coding": [ {
              "system": "http://terminology.hl7.org/CodeSystem/measure-population",
              "code": "measure-observation",
              "display": "Measure Observation"
            } ]
          },
          "count": 6
        } ],
        "measureScore": {
          "value": 0.0
        }
      } ],
      "evaluatedResource": [ {
        "reference": "Claim/72f7e473-90c8-45d6-8aea-6df5293dfe08"
      }, {
        "reference": "Patient/8552c09f-c2db-4069-9d15-41efafe4711a"
      }, {
        "reference": "Encounter/fa4b2928-5ef2-4b83-b258-3ee66239ba59"
      }, {
        "reference": "Practitioner/a230e06c-63be-48eb-9275-2075de75eb20"
      }, {
        "reference": "Coverage/7249fb90-fa6b-4c34-8f5f-b3e8a96a458c"
      }, {
        "reference": "Organization/277562bc-9a0f-4582-9abd-7d17cecaa4b5"
      } ]
    },
    "request": {
      "method": "PUT",
      "url": "MeasureReport/1720eba3-6a93-4faa-9b00-13f4d8b8f160"
    }
  } ]
}