{
  "resourceType": "Bundle",
  "id": "tests-8942da50-6322-4df7-bd03-21aecbc427a4-bundle",
  "type": "transaction",
  "entry": [ {
    "fullUrl": "https://madie.cms.gov/Procedure/987d57b4-3a86-4667-9a55-d418ebdfd062",
    "resource": {
      "resourceType": "Procedure",
      "id": "987d57b4-3a86-4667-9a55-d418ebdfd062",
      "meta": {
        "profile": [ "http://hl7.org/fhir/us/qicore/StructureDefinition/qicore-procedure" ]
      },
      "extension": [ {
        "url": "http://hl7.org/fhir/us/qicore/StructureDefinition/qicore-recorded",
        "valueDateTime": "2026-04-13T10:20:00.000Z"
      } ],
      "status": "completed",
      "code": {
        "coding": [ {
          "system": "http://www.cms.gov/Medicare/Coding/ICD10",
          "code": "0BH13EZ",
          "display": "Insertion of Endotracheal Airway into Trachea, Percutaneous Approach"
        } ],
        "text": "Insertion of Endotracheal Airway into Trachea, Percutaneous Approach"
      },
      "subject": {
        "reference": "Patient/8942da50-6322-4df7-bd03-21aecbc427a4"
      },
      "performedPeriod": {
        "start": "2026-04-12T08:00:00.000Z",
        "end": "2026-04-13T10:15:00.000Z"
      }
    },
    "request": {
      "method": "PUT",
      "url": "Procedure/987d57b4-3a86-4667-9a55-d418ebdfd062"
    }
  }, {
    "fullUrl": "https://madie.cms.gov/Procedure/53993012-9070-425b-9c18-798472c148dc",
    "resource": {
      "resourceType": "Procedure",
      "id": "53993012-9070-425b-9c18-798472c148dc",
      "meta": {
        "profile": [ "http://hl7.org/fhir/us/qicore/StructureDefinition/qicore-procedure" ]
      },
      "extension": [ {
        "url": "http://hl7.org/fhir/us/qicore/StructureDefinition/qicore-recorded",
        "valueDateTime": "2026-04-11T10:30:00.000Z"
      } ],
      "status": "completed",
      "category": {
        "coding": [ {
          "system": "http://snomed.info/sct",
          "code": "18286008",
          "display": "General or neuraxial anesthesia"
        } ]
      },
      "code": {
        "coding": [ {
          "system": "http://snomed.info/sct",
          "code": "112943005",
          "display": "Epidural injection of anesthetic substance, diagnostic, caudal, continuous"
        } ]
      },
      "subject": {
        "reference": "Patient/8942da50-6322-4df7-bd03-21aecbc427a4"
      },
      "performedPeriod": {
        "start": "2026-04-11T08:00:00.000Z",
        "end": "2026-04-11T10:15:00.000Z"
      }
    },
    "request": {
      "method": "PUT",
      "url": "Procedure/53993012-9070-425b-9c18-798472c148dc"
    }
  }, {
    "fullUrl": "https://madie.cms.gov/Procedure/d8c2bff5-951e-44c1-8c20-a87b0530dea5",
    "resource": {
      "resourceType": "Procedure",
      "id": "d8c2bff5-951e-44c1-8c20-a87b0530dea5",
      "meta": {
        "profile": [ "http://hl7.org/fhir/us/qicore/StructureDefinition/qicore-procedure" ]
      },
      "extension": [ {
        "url": "http://hl7.org/fhir/us/qicore/StructureDefinition/qicore-recorded",
        "valueDateTime": "2026-04-19T10:30:00.000Z"
      } ],
      "status": "completed",
      "category": {
        "coding": [ {
          "system": "http://snomed.info/sct",
          "code": "18286008",
          "display": "General or neuraxial anesthesia"
        } ]
      },
      "code": {
        "coding": [ {
          "system": "http://snomed.info/sct",
          "code": "112943005",
          "display": "Epidural injection of anesthetic substance, diagnostic, caudal, continuous"
        } ]
      },
      "subject": {
        "reference": "Patient/8942da50-6322-4df7-bd03-21aecbc427a4"
      },
      "performedPeriod": {
        "start": "2026-04-19T08:00:00.000Z",
        "end": "2026-04-19T10:15:00.000Z"
      }
    },
    "request": {
      "method": "PUT",
      "url": "Procedure/d8c2bff5-951e-44c1-8c20-a87b0530dea5"
    }
  }, {
    "fullUrl": "https://madie.cms.gov/Encounter/5db05778-74f1-4156-bc6e-19cdf43588d5",
    "resource": {
      "resourceType": "Encounter",
      "id": "5db05778-74f1-4156-bc6e-19cdf43588d5",
      "meta": {
        "profile": [ "http://hl7.org/fhir/us/qicore/StructureDefinition/qicore-encounter" ]
      },
      "status": "finished",
      "class": {
        "system": "http://terminology.hl7.org/CodeSystem/v3-ActCode",
        "code": "IMP",
        "display": "inpatient encounter"
      },
      "type": [ {
        "coding": [ {
          "system": "http://snomed.info/sct",
          "code": "112689000",
          "display": "Hospital admission, elective, with complete pre-admission work-up"
        } ],
        "text": "Hospital admission, elective, with complete pre-admission work-up"
      } ],
      "priority": {
        "coding": [ {
          "system": "http://snomed.info/sct",
          "code": "103390000"
        } ]
      },
      "subject": {
        "reference": "Patient/8942da50-6322-4df7-bd03-21aecbc427a4"
      },
      "period": {
        "start": "2026-04-10T08:00:00.000Z",
        "end": "2026-04-14T08:15:00.000Z"
      }
    },
    "request": {
      "method": "PUT",
      "url": "Encounter/5db05778-74f1-4156-bc6e-19cdf43588d5"
    }
  }, {
    "fullUrl": "https://madie.cms.gov/Patient/8942da50-6322-4df7-bd03-21aecbc427a4",
    "resource": {
      "resourceType": "Patient",
      "id": "8942da50-6322-4df7-bd03-21aecbc427a4",
      "meta": {
        "profile": [ "http://hl7.org/fhir/us/qicore/StructureDefinition/qicore-patient" ]
      },
      "extension": [ {
        "url": "http://hl7.org/fhir/us/core/StructureDefinition/us-core-race",
        "extension": [ {
          "url": "ombCategory",
          "valueCoding": {
            "system": "urn:oid:2.16.840.1.113883.6.238",
            "code": "1002-5",
            "display": "American Indian or Alaska Native",
            "userSelected": true
          }
        }, {
          "url": "text",
          "valueString": "American Indian or Alaska Native"
        } ]
      }, {
        "url": "http://hl7.org/fhir/us/core/StructureDefinition/us-core-ethnicity",
        "extension": [ {
          "url": "ombCategory",
          "valueCoding": {
            "system": "urn:oid:2.16.840.1.113883.6.238",
            "code": "2186-5",
            "display": "Not Hispanic or Latino",
            "userSelected": true
          }
        }, {
          "url": "text",
          "valueString": "Not Hispanic or Latino"
        } ]
      } ],
      "identifier": [ {
        "type": {
          "coding": [ {
            "system": "http://terminology.hl7.org/CodeSystem/v2-0203",
            "code": "MR"
          } ]
        },
        "system": "https://bonnie-fhir.healthit.gov/",
        "value": "61152a3b98086b7a79cbd7c1"
      } ],
      "active": true,
      "name": [ {
        "use": "usual",
        "family": "DENEXFail",
        "given": [ "2Enc1stMVexc2ndNum" ]
      } ],
      "gender": "male",
      "birthDate": "1966-07-12"
    },
    "request": {
      "method": "PUT",
      "url": "Patient/8942da50-6322-4df7-bd03-21aecbc427a4"
    }
  }, {
    "fullUrl": "https://madie.cms.gov/Procedure/b96f5bde-2799-4b58-a777-17881d451cca",
    "resource": {
      "resourceType": "Procedure",
      "id": "b96f5bde-2799-4b58-a777-17881d451cca",
      "meta": {
        "profile": [ "http://hl7.org/fhir/us/qicore/StructureDefinition/qicore-procedure" ]
      },
      "extension": [ {
        "url": "http://hl7.org/fhir/us/qicore/StructureDefinition/qicore-recorded",
        "valueDateTime": "2026-04-20T08:10:00.000Z"
      } ],
      "status": "completed",
      "code": {
        "coding": [ {
          "system": "http://www.cms.gov/Medicare/Coding/ICD10",
          "code": "0BH13EZ",
          "display": "Insertion of Endotracheal Airway into Trachea, Percutaneous Approach"
        } ],
        "text": "Insertion of Endotracheal Airway into Trachea, Percutaneous Approach"
      },
      "subject": {
        "reference": "Patient/8942da50-6322-4df7-bd03-21aecbc427a4"
      },
      "performedDateTime": "2026-04-20T08:00:00.000Z"
    },
    "request": {
      "method": "PUT",
      "url": "Procedure/b96f5bde-2799-4b58-a777-17881d451cca"
    }
  }, {
    "fullUrl": "https://madie.cms.gov/Procedure/e79a32df-caf6-4e56-a50a-09170090b1df",
    "resource": {
      "resourceType": "Procedure",
      "id": "e79a32df-caf6-4e56-a50a-09170090b1df",
      "meta": {
        "profile": [ "http://hl7.org/fhir/us/qicore/StructureDefinition/qicore-procedure" ]
      },
      "extension": [ {
        "url": "http://hl7.org/fhir/us/qicore/StructureDefinition/qicore-recorded",
        "valueDateTime": "2026-04-11T06:10:00.000Z"
      } ],
      "status": "completed",
      "code": {
        "coding": [ {
          "system": "http://snomed.info/sct",
          "code": "243141005",
          "display": "Mechanically assisted spontaneous ventilation"
        } ],
        "text": "Mechanically assisted spontaneous ventilation"
      },
      "subject": {
        "reference": "Patient/8942da50-6322-4df7-bd03-21aecbc427a4"
      },
      "performedDateTime": "2026-04-11T06:59:00.000Z"
    },
    "request": {
      "method": "PUT",
      "url": "Procedure/e79a32df-caf6-4e56-a50a-09170090b1df"
    }
  }, {
    "fullUrl": "https://madie.cms.gov/Encounter/fb38d61d-b256-4048-bb89-9cccc2c0fe38",
    "resource": {
      "resourceType": "Encounter",
      "id": "fb38d61d-b256-4048-bb89-9cccc2c0fe38",
      "meta": {
        "profile": [ "http://hl7.org/fhir/us/qicore/StructureDefinition/qicore-encounter" ]
      },
      "status": "finished",
      "class": {
        "system": "http://terminology.hl7.org/CodeSystem/v3-ActCode",
        "code": "IMP",
        "display": "inpatient encounter"
      },
      "type": [ {
        "coding": [ {
          "system": "http://snomed.info/sct",
          "code": "112689000",
          "display": "Hospital admission, elective, with complete pre-admission work-up"
        } ],
        "text": "Hospital admission, elective, with complete pre-admission work-up"
      } ],
      "priority": {
        "coding": [ {
          "system": "http://snomed.info/sct",
          "code": "103390000"
        } ]
      },
      "subject": {
        "reference": "Patient/8942da50-6322-4df7-bd03-21aecbc427a4"
      },
      "period": {
        "start": "2026-04-18T08:00:00.000Z",
        "end": "2026-04-22T08:15:00.000Z"
      }
    },
    "request": {
      "method": "PUT",
      "url": "Encounter/fb38d61d-b256-4048-bb89-9cccc2c0fe38"
    }
  }, {
    "fullUrl": "https://madie.cms.gov/MeasureReport/971705bb-7a23-4dd9-80b0-752ae65af4b4",
    "resource": {
      "resourceType": "MeasureReport",
      "id": "971705bb-7a23-4dd9-80b0-752ae65af4b4",
      "meta": {
        "profile": [ "http://hl7.org/fhir/us/cqfmeasures/StructureDefinition/test-case-cqfm" ]
      },
      "contained": [ {
        "resourceType": "Parameters",
        "id": "cfa13347-9ee0-43fe-b540-9deba7d7e95f-parameters",
        "parameter": [ {
          "name": "subject",
          "valueString": "8942da50-6322-4df7-bd03-21aecbc427a4"
        } ]
      } ],
      "extension": [ {
        "url": "http://hl7.org/fhir/StructureDefinition/cqf-inputParameters",
        "valueReference": {
          "reference": "#cfa13347-9ee0-43fe-b540-9deba7d7e95f-parameters"
        }
      }, {
        "url": "http://hl7.org/fhir/us/cqfmeasures/StructureDefinition/cqfm-testCaseDescription",
        "valueMarkdown": "1st encounter excluded - MV starts more than 1 hr prior to first proc. 2nd encounter meets numerator 1 intubation outside of procedural area. "
      } ],
      "modifierExtension": [ {
        "url": "http://hl7.org/fhir/us/cqfmeasures/StructureDefinition/cqfm-isTestCase",
        "valueBoolean": true
      } ],
      "status": "complete",
      "type": "individual",
      "measure": "https://madie.cms.gov/Measure/CMS1218FHIRHHRF",
      "period": {
        "start": "2026-01-01",
        "end": "2026-12-31"
      },
      "group": [ {
        "id": "Group_1",
        "population": [ {
          "id": "InitialPopulation_1",
          "code": {
            "coding": [ {
              "system": "http://terminology.hl7.org/CodeSystem/measure-population",
              "code": "initial-population",
              "display": "Initial Population"
            } ]
          },
          "count": 2
        }, {
          "id": "Denominator_1",
          "code": {
            "coding": [ {
              "system": "http://terminology.hl7.org/CodeSystem/measure-population",
              "code": "denominator",
              "display": "Denominator"
            } ]
          },
          "count": 2
        }, {
          "id": "DenominatorExclusion_1",
          "code": {
            "coding": [ {
              "system": "http://terminology.hl7.org/CodeSystem/measure-population",
              "code": "denominator-exclusion",
              "display": "Denominator Exclusion"
            } ]
          },
          "count": 1
        }, {
          "id": "Numerator_1",
          "code": {
            "coding": [ {
              "system": "http://terminology.hl7.org/CodeSystem/measure-population",
              "code": "numerator",
              "display": "Numerator"
            } ]
          },
          "count": 1
        } ],
        "measureScore": {
          "value": 0.0
        }
      } ],
      "evaluatedResource": [ {
        "reference": "Procedure/987d57b4-3a86-4667-9a55-d418ebdfd062"
      }, {
        "reference": "Procedure/53993012-9070-425b-9c18-798472c148dc"
      }, {
        "reference": "Procedure/d8c2bff5-951e-44c1-8c20-a87b0530dea5"
      }, {
        "reference": "Encounter/5db05778-74f1-4156-bc6e-19cdf43588d5"
      }, {
        "reference": "Patient/8942da50-6322-4df7-bd03-21aecbc427a4"
      }, {
        "reference": "Procedure/b96f5bde-2799-4b58-a777-17881d451cca"
      }, {
        "reference": "Procedure/e79a32df-caf6-4e56-a50a-09170090b1df"
      }, {
        "reference": "Encounter/fb38d61d-b256-4048-bb89-9cccc2c0fe38"
      } ]
    },
    "request": {
      "method": "PUT",
      "url": "MeasureReport/971705bb-7a23-4dd9-80b0-752ae65af4b4"
    }
  } ]
}