{
  "resourceType": "Bundle",
  "id": "tests-RiskVarPassFirstRespiratoryRate-bundle",
  "type": "transaction",
  "entry": [ {
    "fullUrl": "https://madie.cms.gov/Encounter/5d377596-ea8c-4e9c-a19b-0015f945530e",
    "resource": {
      "resourceType": "Encounter",
      "id": "5d377596-ea8c-4e9c-a19b-0015f945530e",
      "meta": {
        "profile": [ "http://hl7.org/fhir/us/qicore/StructureDefinition/qicore-encounter" ]
      },
      "status": "finished",
      "class": {
        "system": "http://terminology.hl7.org/CodeSystem/v3-ActCode",
        "code": "IMP",
        "display": "inpatient encounter"
      },
      "type": [ {
        "coding": [ {
          "system": "http://snomed.info/sct",
          "code": "112689000",
          "display": "Hospital admission, elective, with complete pre-admission work-up"
        } ],
        "text": "Hospital admission, elective, with complete pre-admission work-up"
      } ],
      "priority": {
        "coding": [ {
          "system": "http://snomed.info/sct",
          "code": "103390000"
        } ]
      },
      "subject": {
        "reference": "Patient/c706d170-57b2-4eb2-9af8-d7bcce8728a1"
      },
      "period": {
        "start": "2026-04-10T08:00:00.000Z",
        "end": "2026-04-14T08:15:00.000Z"
      }
    },
    "request": {
      "method": "PUT",
      "url": "Encounter/5d377596-ea8c-4e9c-a19b-0015f945530e"
    }
  }, {
    "fullUrl": "https://madie.cms.gov/Observation/b815c89a-06e4-4866-9f0c-1bed01e6a793",
    "resource": {
      "resourceType": "Observation",
      "id": "b815c89a-06e4-4866-9f0c-1bed01e6a793",
      "meta": {
        "profile": [ "http://hl7.org/fhir/us/core/StructureDefinition/us-core-respiratory-rate" ]
      },
      "status": "final",
      "category": [ {
        "coding": [ {
          "system": "http://terminology.hl7.org/CodeSystem/observation-category",
          "code": "vital-signs",
          "display": "Vital Signs"
        } ]
      } ],
      "code": {
        "coding": [ {
          "system": "http://loinc.org",
          "code": "9279-1",
          "display": "Respiratory rate"
        } ],
        "text": "Respiratory rate"
      },
      "subject": {
        "reference": "Patient/c706d170-57b2-4eb2-9af8-d7bcce8728a1"
      },
      "encounter": {
        "reference": "Encounter/5d377596-ea8c-4e9c-a19b-0015f945530e"
      },
      "effectiveDateTime": "2026-04-11T09:00:00.000Z",
      "valueQuantity": {
        "value": 79,
        "unit": "'/min'",
        "system": "http://unitsofmeasure.org",
        "code": "/min"
      }
    },
    "request": {
      "method": "PUT",
      "url": "Observation/b815c89a-06e4-4866-9f0c-1bed01e6a793"
    }
  }, {
    "fullUrl": "https://madie.cms.gov/Patient/c706d170-57b2-4eb2-9af8-d7bcce8728a1",
    "resource": {
      "resourceType": "Patient",
      "id": "c706d170-57b2-4eb2-9af8-d7bcce8728a1",
      "meta": {
        "profile": [ "http://hl7.org/fhir/us/qicore/StructureDefinition/qicore-patient" ]
      },
      "extension": [ {
        "url": "http://hl7.org/fhir/us/core/StructureDefinition/us-core-race",
        "extension": [ {
          "url": "ombCategory",
          "valueCoding": {
            "system": "urn:oid:2.16.840.1.113883.6.238",
            "code": "2054-5",
            "display": "Black or African American",
            "userSelected": true
          }
        }, {
          "url": "text",
          "valueString": "Black or African American"
        } ]
      }, {
        "url": "http://hl7.org/fhir/us/core/StructureDefinition/us-core-ethnicity",
        "extension": [ {
          "url": "ombCategory",
          "valueCoding": {
            "system": "urn:oid:2.16.840.1.113883.6.238",
            "code": "2186-5",
            "display": "Not Hispanic or Latino",
            "userSelected": true
          }
        }, {
          "url": "text",
          "valueString": "Not Hispanic or Latino"
        } ]
      } ],
      "identifier": [ {
        "type": {
          "coding": [ {
            "system": "http://terminology.hl7.org/CodeSystem/v2-0203",
            "code": "MR"
          } ]
        },
        "system": "https://bonnie-fhir.healthit.gov/",
        "value": "61152a3b98086b7a79cbd7c1"
      } ],
      "active": true,
      "name": [ {
        "use": "usual",
        "family": "DENOMPass",
        "given": [ "RiskVariableASAClass" ]
      } ],
      "gender": "female",
      "birthDate": "1966-07-12"
    },
    "request": {
      "method": "PUT",
      "url": "Patient/c706d170-57b2-4eb2-9af8-d7bcce8728a1"
    }
  }, {
    "fullUrl": "https://madie.cms.gov/Observation/bef12e29-6108-4a62-907b-5741c0d3650c",
    "resource": {
      "resourceType": "Observation",
      "id": "bef12e29-6108-4a62-907b-5741c0d3650c",
      "meta": {
        "profile": [ "http://hl7.org/fhir/us/core/StructureDefinition/us-core-respiratory-rate" ]
      },
      "status": "final",
      "category": [ {
        "coding": [ {
          "system": "http://terminology.hl7.org/CodeSystem/observation-category",
          "code": "vital-signs",
          "display": "Vital Signs"
        } ]
      } ],
      "code": {
        "coding": [ {
          "system": "http://loinc.org",
          "code": "9279-1",
          "display": "Respiratory rate"
        } ],
        "text": "Respiratory rate"
      },
      "subject": {
        "reference": "Patient/c706d170-57b2-4eb2-9af8-d7bcce8728a1"
      },
      "encounter": {
        "reference": "Encounter/5d377596-ea8c-4e9c-a19b-0015f945530e"
      },
      "effectiveDateTime": "2026-04-11T08:00:00.000Z",
      "valueQuantity": {
        "value": 72,
        "unit": "'/min'",
        "system": "http://unitsofmeasure.org",
        "code": "/min"
      }
    },
    "request": {
      "method": "PUT",
      "url": "Observation/bef12e29-6108-4a62-907b-5741c0d3650c"
    }
  }, {
    "fullUrl": "https://madie.cms.gov/Procedure/4b137094-b15a-4a6f-aa41-3e888547af7a",
    "resource": {
      "resourceType": "Procedure",
      "id": "4b137094-b15a-4a6f-aa41-3e888547af7a",
      "meta": {
        "profile": [ "http://hl7.org/fhir/us/qicore/StructureDefinition/qicore-procedure" ]
      },
      "extension": [ {
        "url": "http://hl7.org/fhir/us/qicore/StructureDefinition/qicore-recorded",
        "valueDateTime": "2026-04-11T10:30:00.000Z"
      } ],
      "status": "completed",
      "category": {
        "coding": [ {
          "system": "http://snomed.info/sct",
          "code": "18286008",
          "display": "General or neuraxial anesthesia"
        } ]
      },
      "code": {
        "coding": [ {
          "system": "http://snomed.info/sct",
          "code": "112943005",
          "display": "Epidural injection of anesthetic substance, diagnostic, caudal, continuous"
        } ]
      },
      "subject": {
        "reference": "Patient/c706d170-57b2-4eb2-9af8-d7bcce8728a1"
      },
      "performedPeriod": {
        "start": "2026-04-11T08:00:00.000Z",
        "end": "2026-04-11T10:15:00.000Z"
      }
    },
    "request": {
      "method": "PUT",
      "url": "Procedure/4b137094-b15a-4a6f-aa41-3e888547af7a"
    }
  }, {
    "fullUrl": "https://madie.cms.gov/MeasureReport/570d11ac-4547-43a5-9155-8a361a4fad9d",
    "resource": {
      "resourceType": "MeasureReport",
      "id": "570d11ac-4547-43a5-9155-8a361a4fad9d",
      "meta": {
        "profile": [ "http://hl7.org/fhir/us/cqfmeasures/StructureDefinition/test-case-cqfm" ]
      },
      "contained": [ {
        "resourceType": "Parameters",
        "id": "0ec52055-0ab7-48b0-a873-9abac551c564-parameters",
        "parameter": [ {
          "name": "subject",
          "valueString": "c706d170-57b2-4eb2-9af8-d7bcce8728a1"
        } ]
      } ],
      "extension": [ {
        "url": "http://hl7.org/fhir/StructureDefinition/cqf-inputParameters",
        "valueReference": {
          "reference": "#0ec52055-0ab7-48b0-a873-9abac551c564-parameters"
        }
      }, {
        "url": "http://hl7.org/fhir/us/cqfmeasures/StructureDefinition/cqfm-testCaseDescription",
        "valueMarkdown": "DENOMPass satisfies First Respiratory Rate risk variable"
      } ],
      "modifierExtension": [ {
        "url": "http://hl7.org/fhir/us/cqfmeasures/StructureDefinition/cqfm-isTestCase",
        "valueBoolean": true
      } ],
      "status": "complete",
      "type": "individual",
      "measure": "https://madie.cms.gov/Measure/CMS1218FHIRHHRF",
      "period": {
        "start": "2026-01-01",
        "end": "2026-12-31"
      },
      "group": [ {
        "id": "Group_1",
        "population": [ {
          "id": "InitialPopulation_1",
          "code": {
            "coding": [ {
              "system": "http://terminology.hl7.org/CodeSystem/measure-population",
              "code": "initial-population",
              "display": "Initial Population"
            } ]
          },
          "count": 1
        }, {
          "id": "Denominator_1",
          "code": {
            "coding": [ {
              "system": "http://terminology.hl7.org/CodeSystem/measure-population",
              "code": "denominator",
              "display": "Denominator"
            } ]
          },
          "count": 1
        }, {
          "id": "DenominatorExclusion_1",
          "code": {
            "coding": [ {
              "system": "http://terminology.hl7.org/CodeSystem/measure-population",
              "code": "denominator-exclusion",
              "display": "Denominator Exclusion"
            } ]
          },
          "count": 0
        }, {
          "id": "Numerator_1",
          "code": {
            "coding": [ {
              "system": "http://terminology.hl7.org/CodeSystem/measure-population",
              "code": "numerator",
              "display": "Numerator"
            } ]
          },
          "count": 0
        } ],
        "measureScore": {
          "value": 0.0
        }
      } ],
      "evaluatedResource": [ {
        "reference": "Encounter/5d377596-ea8c-4e9c-a19b-0015f945530e"
      }, {
        "reference": "Observation/b815c89a-06e4-4866-9f0c-1bed01e6a793"
      }, {
        "reference": "Patient/c706d170-57b2-4eb2-9af8-d7bcce8728a1"
      }, {
        "reference": "Observation/bef12e29-6108-4a62-907b-5741c0d3650c"
      }, {
        "reference": "Procedure/4b137094-b15a-4a6f-aa41-3e888547af7a"
      } ]
    },
    "request": {
      "method": "PUT",
      "url": "MeasureReport/570d11ac-4547-43a5-9155-8a361a4fad9d"
    }
  } ]
}