{
  "resourceType": "Bundle",
  "id": "tests-NumerPass-OneHospitalizationTwoClaims-bundle",
  "type": "transaction",
  "entry": [ {
    "fullUrl": "https://madie.cms.gov/Encounter/642be221-2ec9-4351-a598-949fe0f1f8c5",
    "resource": {
      "resourceType": "Encounter",
      "id": "642be221-2ec9-4351-a598-949fe0f1f8c5",
      "meta": {
        "profile": [ "http://hl7.org/fhir/us/qicore/StructureDefinition/qicore-encounter" ]
      },
      "status": "finished",
      "class": {
        "system": "http://terminology.hl7.org/CodeSystem/v3-ActCode",
        "code": "IMP",
        "display": "inpatient encounter"
      },
      "type": [ {
        "coding": [ {
          "system": "http://snomed.info/sct",
          "code": "183452005",
          "display": "Emergency hospital admission"
        } ]
      } ],
      "subject": {
        "reference": "Patient/f18417e1-5990-40b7-b927-5b50015380a2"
      },
      "period": {
        "start": "2026-10-19T08:30:00.000+00:00",
        "end": "2026-10-21T08:15:00.000+00:00"
      },
      "reasonCode": [ {
        "coding": [ {
          "system": "http://snomed.info/sct",
          "code": "14047009"
        } ]
      }, {
        "coding": [ {
          "system": "http://snomed.info/sct",
          "code": "64859006"
        } ]
      } ]
    },
    "request": {
      "method": "PUT",
      "url": "Encounter/642be221-2ec9-4351-a598-949fe0f1f8c5"
    }
  }, {
    "fullUrl": "https://madie.cms.gov/Encounter/ed08995a-871f-47c7-a431-473b6ddeebc4",
    "resource": {
      "resourceType": "Encounter",
      "id": "ed08995a-871f-47c7-a431-473b6ddeebc4",
      "meta": {
        "profile": [ "http://hl7.org/fhir/us/qicore/StructureDefinition/qicore-encounter" ]
      },
      "status": "finished",
      "class": {
        "system": "http://terminology.hl7.org/CodeSystem/v3-ActCode",
        "code": "EMER",
        "display": "emergency encounter"
      },
      "type": [ {
        "coding": [ {
          "system": "http://snomed.info/sct",
          "code": "4525004",
          "display": "Emergency department patient visit (procedure)"
        } ]
      } ],
      "subject": {
        "reference": "Patient/f18417e1-5990-40b7-b927-5b50015380a2"
      },
      "period": {
        "start": "2026-10-18T09:15:00.000+00:00",
        "end": "2026-10-19T08:15:00.000+00:00"
      }
    },
    "request": {
      "method": "PUT",
      "url": "Encounter/ed08995a-871f-47c7-a431-473b6ddeebc4"
    }
  }, {
    "fullUrl": "https://madie.cms.gov/Patient/f18417e1-5990-40b7-b927-5b50015380a2",
    "resource": {
      "resourceType": "Patient",
      "id": "f18417e1-5990-40b7-b927-5b50015380a2",
      "meta": {
        "profile": [ "http://hl7.org/fhir/us/qicore/StructureDefinition/qicore-patient" ]
      },
      "extension": [ {
        "url": "http://hl7.org/fhir/us/core/StructureDefinition/us-core-race",
        "extension": [ {
          "url": "ombCategory",
          "valueCoding": {
            "system": "urn:oid:2.16.840.1.113883.6.238",
            "code": "2106-3",
            "display": "White"
          }
        }, {
          "url": "text",
          "valueString": "White"
        } ]
      }, {
        "url": "http://hl7.org/fhir/us/core/StructureDefinition/us-core-ethnicity",
        "extension": [ {
          "url": "ombCategory",
          "valueCoding": {
            "system": "urn:oid:2.16.840.1.113883.6.238",
            "code": "2135-2",
            "display": "Hispanic or Latino"
          }
        }, {
          "url": "text",
          "valueString": "Hispanic or Latino"
        } ]
      }, {
        "url": "http://hl7.org/fhir/us/core/StructureDefinition/us-core-sex",
        "valueCode": "248153007"
      } ],
      "identifier": [ {
        "system": "http://hospital.smarthealthit.org",
        "value": "999999999"
      } ],
      "name": [ {
        "family": "Example",
        "given": [ "Patient" ]
      } ],
      "gender": "female",
      "birthDate": "1956-01-01"
    },
    "request": {
      "method": "PUT",
      "url": "Patient/f18417e1-5990-40b7-b927-5b50015380a2"
    }
  }, {
    "fullUrl": "https://madie.cms.gov/Claim/26dc3b5c-8839-4aab-b1d0-11b6980993d1",
    "resource": {
      "resourceType": "Claim",
      "id": "26dc3b5c-8839-4aab-b1d0-11b6980993d1",
      "meta": {
        "profile": [ "http://hl7.org/fhir/us/qicore/StructureDefinition/qicore-claim" ]
      },
      "status": "active",
      "type": {
        "coding": [ {
          "system": "http://terminology.hl7.org/CodeSystem/claim-type",
          "code": "institutional",
          "display": "Institutional"
        } ]
      },
      "use": "claim",
      "patient": {
        "reference": "Patient/f18417e1-5990-40b7-b927-5b50015380a2"
      },
      "created": "2026-10-22",
      "provider": {
        "reference": "Practitioner/5897ae85-7eee-4c63-a51d-e27c2f65ca06"
      },
      "priority": {
        "coding": [ {
          "system": "http://terminology.hl7.org/CodeSystem/processpriority",
          "code": "normal"
        } ]
      },
      "diagnosis": [ {
        "sequence": 1,
        "diagnosisCodeableConcept": {
          "coding": [ {
            "system": "http://snomed.info/sct",
            "code": "14047009"
          } ]
        }
      } ],
      "insurance": [ {
        "sequence": 1,
        "focal": true,
        "coverage": {
          "reference": "Coverage/6e09834b-15ae-4cde-a301-96abfa3ce9b0"
        }
      } ],
      "item": [ {
        "sequence": 1,
        "diagnosisSequence": [ 1, 2 ],
        "productOrService": {
          "coding": [ {
            "system": "http://terminology.hl7.org/CodeSystem/ex-USCLS",
            "code": "1101"
          } ]
        },
        "encounter": [ {
          "reference": "Encounter/642be221-2ec9-4351-a598-949fe0f1f8c5"
        } ]
      } ]
    },
    "request": {
      "method": "PUT",
      "url": "Claim/26dc3b5c-8839-4aab-b1d0-11b6980993d1"
    }
  }, {
    "fullUrl": "https://madie.cms.gov/Claim/8ae197b3-a786-4945-9385-d4ee295b0b9a",
    "resource": {
      "resourceType": "Claim",
      "id": "8ae197b3-a786-4945-9385-d4ee295b0b9a",
      "meta": {
        "profile": [ "http://hl7.org/fhir/us/qicore/StructureDefinition/qicore-claim" ]
      },
      "status": "active",
      "type": {
        "coding": [ {
          "system": "http://terminology.hl7.org/CodeSystem/claim-type",
          "code": "institutional",
          "display": "Institutional"
        } ]
      },
      "use": "claim",
      "patient": {
        "reference": "Patient/f18417e1-5990-40b7-b927-5b50015380a2"
      },
      "created": "2026-11-01",
      "provider": {
        "reference": "Practitioner/5897ae85-7eee-4c63-a51d-e27c2f65ca06"
      },
      "priority": {
        "coding": [ {
          "system": "http://terminology.hl7.org/CodeSystem/processpriority",
          "code": "normal"
        } ]
      },
      "diagnosis": [ {
        "sequence": 1,
        "diagnosisCodeableConcept": {
          "coding": [ {
            "system": "http://hl7.org/fhir/sid/icd-10-cm",
            "code": "M80.00XA",
            "display": "Age-related osteoporosis with current pathological fracture, unspecified site, initial encounter for fracture"
          } ]
        }
      } ],
      "insurance": [ {
        "sequence": 1,
        "focal": true,
        "coverage": {
          "reference": "Coverage/6e09834b-15ae-4cde-a301-96abfa3ce9b0"
        }
      } ],
      "item": [ {
        "sequence": 1,
        "diagnosisSequence": [ 1, 2 ],
        "productOrService": {
          "coding": [ {
            "system": "http://terminology.hl7.org/CodeSystem/ex-USCLS",
            "code": "1101"
          } ]
        },
        "encounter": [ {
          "reference": "Encounter/642be221-2ec9-4351-a598-949fe0f1f8c5"
        } ]
      } ]
    },
    "request": {
      "method": "PUT",
      "url": "Claim/8ae197b3-a786-4945-9385-d4ee295b0b9a"
    }
  }, {
    "fullUrl": "https://madie.cms.gov/Practitioner/5897ae85-7eee-4c63-a51d-e27c2f65ca06",
    "resource": {
      "resourceType": "Practitioner",
      "id": "5897ae85-7eee-4c63-a51d-e27c2f65ca06",
      "identifier": [ {
        "system": "http://www.cms.gov/identifiers/pracitioners",
        "value": "P12345"
      } ],
      "name": [ {
        "use": "official",
        "family": "Smith",
        "given": [ "John" ]
      } ],
      "qualification": [ {
        "identifier": [ {
          "system": "http://hl7.org/fhir/sid/us-npi",
          "value": "1234567890"
        } ],
        "code": {
          "coding": [ {
            "system": "http://terminology.hl7.org/CodeSystem/v2-0203",
            "code": "MD",
            "display": "Medical License number"
          } ]
        }
      } ]
    },
    "request": {
      "method": "PUT",
      "url": "Practitioner/5897ae85-7eee-4c63-a51d-e27c2f65ca06"
    }
  }, {
    "fullUrl": "https://madie.cms.gov/Coverage/6e09834b-15ae-4cde-a301-96abfa3ce9b0",
    "resource": {
      "resourceType": "Coverage",
      "id": "6e09834b-15ae-4cde-a301-96abfa3ce9b0",
      "status": "active",
      "beneficiary": {
        "reference": "Patient/f18417e1-5990-40b7-b927-5b50015380a2"
      },
      "payor": [ {
        "reference": "Organization/d32e9049-af44-465f-96f1-b85a35d9547c"
      } ]
    },
    "request": {
      "method": "PUT",
      "url": "Coverage/6e09834b-15ae-4cde-a301-96abfa3ce9b0"
    }
  }, {
    "fullUrl": "https://madie.cms.gov/Organization/d32e9049-af44-465f-96f1-b85a35d9547c",
    "resource": {
      "resourceType": "Organization",
      "id": "d32e9049-af44-465f-96f1-b85a35d9547c",
      "identifier": [ {
        "system": "http://cms.gov/insurance-ids",
        "value": "AET12345"
      } ],
      "type": [ {
        "coding": [ {
          "system": "http://terminology.hl7.org/CodeSystem/organization-type",
          "code": "prov",
          "display": "Healthcare Provider"
        } ]
      } ],
      "name": "Aetna Insurance",
      "telecom": [ {
        "system": "phone",
        "value": "+1-800-123-4567"
      } ],
      "address": [ {
        "line": [ "123 Main Street" ],
        "city": "Cityville",
        "state": "CA",
        "postalCode": "12345",
        "country": "USA"
      } ]
    },
    "request": {
      "method": "PUT",
      "url": "Organization/d32e9049-af44-465f-96f1-b85a35d9547c"
    }
  }, {
    "fullUrl": "https://madie.cms.gov/MeasureReport/14fde158-a84e-48d6-bd64-531b2e2358f0",
    "resource": {
      "resourceType": "MeasureReport",
      "id": "14fde158-a84e-48d6-bd64-531b2e2358f0",
      "meta": {
        "profile": [ "http://hl7.org/fhir/us/cqfmeasures/StructureDefinition/test-case-cqfm" ]
      },
      "contained": [ {
        "resourceType": "Parameters",
        "id": "e894b55e-987f-487c-a514-8bd47586b9d2-parameters",
        "parameter": [ {
          "name": "subject",
          "valueString": "f18417e1-5990-40b7-b927-5b50015380a2"
        } ]
      } ],
      "extension": [ {
        "url": "http://hl7.org/fhir/StructureDefinition/cqf-inputParameters",
        "valueReference": {
          "reference": "#e894b55e-987f-487c-a514-8bd47586b9d2-parameters"
        }
      }, {
        "url": "http://hl7.org/fhir/us/cqfmeasures/StructureDefinition/cqfm-testCaseDescription",
        "valueMarkdown": "Test Case - No POA in the bundle"
      } ],
      "modifierExtension": [ {
        "url": "http://hl7.org/fhir/us/cqfmeasures/StructureDefinition/cqfm-isTestCase",
        "valueBoolean": true
      } ],
      "status": "complete",
      "type": "individual",
      "measure": "https://madie.cms.gov/Measure/CMS1017FHIRHHFI",
      "period": {
        "start": "2026-01-01",
        "end": "2026-12-31"
      },
      "group": [ {
        "id": "Group_1",
        "population": [ {
          "id": "InitialPopulation_1",
          "code": {
            "coding": [ {
              "system": "http://terminology.hl7.org/CodeSystem/measure-population",
              "code": "initial-population",
              "display": "Initial Population"
            } ]
          },
          "count": 1
        }, {
          "id": "Denominator_1",
          "code": {
            "coding": [ {
              "system": "http://terminology.hl7.org/CodeSystem/measure-population",
              "code": "denominator",
              "display": "Denominator"
            } ]
          },
          "count": 1
        }, {
          "id": "DenominatorExclusion_1",
          "code": {
            "coding": [ {
              "system": "http://terminology.hl7.org/CodeSystem/measure-population",
              "code": "denominator-exclusion",
              "display": "Denominator Exclusion"
            } ]
          },
          "count": 0
        }, {
          "id": "Numerator_1",
          "code": {
            "coding": [ {
              "system": "http://terminology.hl7.org/CodeSystem/measure-population",
              "code": "numerator",
              "display": "Numerator"
            } ]
          },
          "count": 1
        }, {
          "id": "NumeratorExclusion_1",
          "code": {
            "coding": [ {
              "system": "http://terminology.hl7.org/CodeSystem/measure-population",
              "code": "numerator-exclusion",
              "display": "Numerator Exclusion"
            } ]
          },
          "count": 0
        }, {
          "id": "MeasureObservation_1_1_1",
          "code": {
            "coding": [ {
              "system": "http://terminology.hl7.org/CodeSystem/measure-population",
              "code": "measure-observation",
              "display": "Measure Observation"
            } ]
          },
          "count": 2
        }, {
          "id": "MeasureObservation_1_2_1",
          "code": {
            "coding": [ {
              "system": "http://terminology.hl7.org/CodeSystem/measure-population",
              "code": "measure-observation",
              "display": "Measure Observation"
            } ]
          },
          "count": 1
        } ],
        "measureScore": {
          "value": 0.0
        }
      } ],
      "evaluatedResource": [ {
        "reference": "Encounter/642be221-2ec9-4351-a598-949fe0f1f8c5"
      }, {
        "reference": "Encounter/ed08995a-871f-47c7-a431-473b6ddeebc4"
      }, {
        "reference": "Patient/f18417e1-5990-40b7-b927-5b50015380a2"
      }, {
        "reference": "Claim/26dc3b5c-8839-4aab-b1d0-11b6980993d1"
      }, {
        "reference": "Claim/8ae197b3-a786-4945-9385-d4ee295b0b9a"
      }, {
        "reference": "Practitioner/5897ae85-7eee-4c63-a51d-e27c2f65ca06"
      }, {
        "reference": "Coverage/6e09834b-15ae-4cde-a301-96abfa3ce9b0"
      }, {
        "reference": "Organization/d32e9049-af44-465f-96f1-b85a35d9547c"
      } ]
    },
    "request": {
      "method": "PUT",
      "url": "MeasureReport/14fde158-a84e-48d6-bd64-531b2e2358f0"
    }
  } ]
}