{
  "resourceType": "Bundle",
  "id": "tests-fe79603f-2876-45eb-a9d0-0be56d3d29a1-bundle",
  "type": "transaction",
  "entry": [ {
    "fullUrl": "https://madie.cms.gov/Observation/4a910fd1-d4dd-4efb-8d31-3ee1fe22e4d6",
    "resource": {
      "resourceType": "Observation",
      "id": "4a910fd1-d4dd-4efb-8d31-3ee1fe22e4d6",
      "meta": {
        "profile": [ "http://hl7.org/fhir/us/qicore/StructureDefinition/qicore-observation-lab" ]
      },
      "status": "final",
      "category": [ {
        "coding": [ {
          "system": "http://terminology.hl7.org/CodeSystem/observation-category",
          "code": "laboratory",
          "display": "Laboratory"
        } ],
        "text": "Laboratory"
      } ],
      "code": {
        "coding": [ {
          "system": "http://loinc.org",
          "code": "2703-7",
          "display": "Oxygen [Partial pressure] in Arterial blood"
        } ],
        "text": "Oxygen [Partial pressure] in Arterial blood"
      },
      "subject": {
        "reference": "Patient/fe79603f-2876-45eb-a9d0-0be56d3d29a1"
      },
      "encounter": {
        "reference": "Encounter/f8339ac2-4e2f-48bd-9100-b8a1bbab0fe5"
      },
      "effectiveDateTime": "2026-04-11T07:59:00.000+00:00",
      "valueQuantity": {
        "value": 48,
        "unit": "mmHg",
        "system": "http://unitsofmeasure.org",
        "code": "mm[Hg]"
      }
    },
    "request": {
      "method": "PUT",
      "url": "Observation/4a910fd1-d4dd-4efb-8d31-3ee1fe22e4d6"
    }
  }, {
    "fullUrl": "https://madie.cms.gov/Encounter/82acc4ec-5bf6-41bd-af2f-a163aa6e3060",
    "resource": {
      "resourceType": "Encounter",
      "id": "82acc4ec-5bf6-41bd-af2f-a163aa6e3060",
      "meta": {
        "profile": [ "http://hl7.org/fhir/us/qicore/StructureDefinition/qicore-encounter" ]
      },
      "status": "finished",
      "class": {
        "system": "http://terminology.hl7.org/CodeSystem/v3-ActCode",
        "code": "IMP",
        "display": "inpatient encounter"
      },
      "type": [ {
        "coding": [ {
          "system": "http://snomed.info/sct",
          "code": "112689000",
          "display": "Hospital admission, elective, with complete pre-admission work-up"
        } ],
        "text": "Hospital admission, elective, with complete pre-admission work-up"
      } ],
      "priority": {
        "coding": [ {
          "system": "http://snomed.info/sct",
          "code": "103390000"
        } ]
      },
      "subject": {
        "reference": "Patient/fe79603f-2876-45eb-a9d0-0be56d3d29a1"
      },
      "period": {
        "start": "2026-04-18T08:00:00.000+00:00",
        "end": "2026-04-25T08:15:00.000+00:00"
      },
      "diagnosis": [ {
        "condition": {
          "reference": "Procedure/f906116e-df5f-4120-910a-330a24ae88fe"
        },
        "rank": 1
      } ]
    },
    "request": {
      "method": "PUT",
      "url": "Encounter/82acc4ec-5bf6-41bd-af2f-a163aa6e3060"
    }
  }, {
    "fullUrl": "https://madie.cms.gov/Patient/fe79603f-2876-45eb-a9d0-0be56d3d29a1",
    "resource": {
      "resourceType": "Patient",
      "id": "fe79603f-2876-45eb-a9d0-0be56d3d29a1",
      "meta": {
        "profile": [ "http://hl7.org/fhir/us/qicore/StructureDefinition/qicore-patient" ]
      },
      "extension": [ {
        "url": "http://hl7.org/fhir/us/core/StructureDefinition/us-core-race",
        "extension": [ {
          "url": "ombCategory",
          "valueCoding": {
            "system": "urn:oid:2.16.840.1.113883.6.238",
            "code": "2054-5",
            "display": "Black or African American",
            "userSelected": true
          }
        }, {
          "url": "text",
          "valueString": "Black or African American"
        } ]
      }, {
        "url": "http://hl7.org/fhir/us/core/StructureDefinition/us-core-ethnicity",
        "extension": [ {
          "url": "ombCategory",
          "valueCoding": {
            "system": "urn:oid:2.16.840.1.113883.6.238",
            "code": "2186-5",
            "display": "Not Hispanic or Latino",
            "userSelected": true
          }
        }, {
          "url": "text",
          "valueString": "Not Hispanic or Latino"
        } ]
      } ],
      "identifier": [ {
        "type": {
          "coding": [ {
            "system": "http://terminology.hl7.org/CodeSystem/v2-0203",
            "code": "MR"
          } ]
        },
        "system": "https://bonnie-fhir.healthit.gov/",
        "value": "61152a3b98086b7a79cbd7c1"
      } ],
      "active": true,
      "name": [ {
        "use": "usual",
        "family": "DENEXFail",
        "given": [ "1EncPaO2Exc2EncNum" ]
      } ],
      "gender": "female",
      "birthDate": "1966-07-12"
    },
    "request": {
      "method": "PUT",
      "url": "Patient/fe79603f-2876-45eb-a9d0-0be56d3d29a1"
    }
  }, {
    "fullUrl": "https://madie.cms.gov/Procedure/41bcf149-f542-4ace-9e5f-682a82d9ec4d",
    "resource": {
      "resourceType": "Procedure",
      "id": "41bcf149-f542-4ace-9e5f-682a82d9ec4d",
      "meta": {
        "profile": [ "http://hl7.org/fhir/us/qicore/StructureDefinition/qicore-procedure" ]
      },
      "extension": [ {
        "url": "http://hl7.org/fhir/us/qicore/StructureDefinition/qicore-recorded",
        "valueDateTime": "2026-04-20T08:10:00.000+00:00"
      } ],
      "status": "completed",
      "code": {
        "coding": [ {
          "system": "http://www.cms.gov/Medicare/Coding/ICD10",
          "code": "0BH13EZ",
          "display": "Insertion of Endotracheal Airway into Trachea, Percutaneous Approach"
        } ],
        "text": "Insertion of Endotracheal Airway into Trachea, Percutaneous Approach"
      },
      "subject": {
        "reference": "Patient/fe79603f-2876-45eb-a9d0-0be56d3d29a1"
      },
      "performedDateTime": "2026-04-20T08:00:00.000+00:00"
    },
    "request": {
      "method": "PUT",
      "url": "Procedure/41bcf149-f542-4ace-9e5f-682a82d9ec4d"
    }
  }, {
    "fullUrl": "https://madie.cms.gov/MeasureReport/66c606d0-3368-44a3-8314-4de3492ea9b2",
    "resource": {
      "resourceType": "MeasureReport",
      "id": "66c606d0-3368-44a3-8314-4de3492ea9b2",
      "meta": {
        "profile": [ "http://hl7.org/fhir/us/cqfmeasures/StructureDefinition/test-case-cqfm" ]
      },
      "contained": [ {
        "resourceType": "Parameters",
        "id": "8ee0746a-12c9-47b5-b3d3-99fbe5203f4f-parameters",
        "parameter": [ {
          "name": "subject",
          "valueString": "fe79603f-2876-45eb-a9d0-0be56d3d29a1"
        } ]
      } ],
      "extension": [ {
        "url": "http://hl7.org/fhir/us/cqfmeasures/StructureDefinition/cqfm-inputParameters",
        "valueReference": {
          "reference": "#8ee0746a-12c9-47b5-b3d3-99fbe5203f4f-parameters"
        }
      }, {
        "url": "http://hl7.org/fhir/us/cqfmeasures/StructureDefinition/cqfm-testCaseDescription",
        "valueMarkdown": "Enc 1: Elective hosp with proc (anesthesia) within first 3 days of encounter. PaO2 <50 and within 48 hours of start of procedure. Meets Exc.\nEnc 2: Intubated outside of OR after first procedure. Meets Num 1. \nExc from enc 1 does not impact enc 2."
      } ],
      "modifierExtension": [ {
        "url": "http://hl7.org/fhir/us/cqfmeasures/StructureDefinition/cqfm-isTestCase",
        "valueBoolean": true
      } ],
      "status": "complete",
      "type": "individual",
      "measure": "https://madie.cms.gov/Measure/CMS1218HHRFFHIR",
      "period": {
        "start": "2026-01-01",
        "end": "2026-12-31"
      },
      "group": [ {
        "id": "67520e47670f1c0879cef598",
        "population": [ {
          "id": "EBD61368-EDA1-4A7F-B134-48A501C47028",
          "code": {
            "coding": [ {
              "system": "http://terminology.hl7.org/CodeSystem/measure-population",
              "code": "initial-population",
              "display": "Initial Population"
            } ]
          },
          "count": 2
        }, {
          "id": "A15EB430-6645-42AC-8FCE-0FF0BF0B4749",
          "code": {
            "coding": [ {
              "system": "http://terminology.hl7.org/CodeSystem/measure-population",
              "code": "denominator",
              "display": "Denominator"
            } ]
          },
          "count": 2
        }, {
          "id": "1389AFF6-741D-47CB-BED0-62D858980EE4",
          "code": {
            "coding": [ {
              "system": "http://terminology.hl7.org/CodeSystem/measure-population",
              "code": "denominator-exclusion",
              "display": "Denominator Exclusion"
            } ]
          },
          "count": 1
        }, {
          "id": "F1D273B8-1513-4C6E-B65F-22FD939174E6",
          "code": {
            "coding": [ {
              "system": "http://terminology.hl7.org/CodeSystem/measure-population",
              "code": "numerator",
              "display": "Numerator"
            } ]
          },
          "count": 1
        } ],
        "measureScore": {
          "value": 0.0
        }
      } ],
      "evaluatedResource": [ {
        "reference": "Encounter/f8339ac2-4e2f-48bd-9100-b8a1bbab0fe5"
      }, {
        "reference": "Encounter/82acc4ec-5bf6-41bd-af2f-a163aa6e3060"
      }, {
        "reference": "Observation/4a910fd1-d4dd-4efb-8d31-3ee1fe22e4d6"
      }, {
        "reference": "Patient/fe79603f-2876-45eb-a9d0-0be56d3d29a1"
      }, {
        "reference": "Procedure/48610cd5-492f-4c5f-a2fa-c25408f5d4a7"
      }, {
        "reference": "Procedure/f906116e-df5f-4120-910a-330a24ae88fe"
      }, {
        "reference": "Procedure/41bcf149-f542-4ace-9e5f-682a82d9ec4d"
      } ]
    },
    "request": {
      "method": "PUT",
      "url": "MeasureReport/66c606d0-3368-44a3-8314-4de3492ea9b2"
    }
  }, {
    "fullUrl": "https://madie.cms.gov/Procedure/f906116e-df5f-4120-910a-330a24ae88fe",
    "resource": {
      "resourceType": "Procedure",
      "id": "f906116e-df5f-4120-910a-330a24ae88fe",
      "meta": {
        "profile": [ "http://hl7.org/fhir/us/qicore/StructureDefinition/qicore-procedure" ]
      },
      "extension": [ {
        "url": "http://hl7.org/fhir/us/qicore/StructureDefinition/qicore-recorded",
        "valueDateTime": "2026-04-19T10:30:00.000+00:00"
      } ],
      "status": "completed",
      "category": {
        "coding": [ {
          "system": "http://snomed.info/sct",
          "code": "18286008",
          "display": "General or neuraxial anesthesia"
        } ]
      },
      "code": {
        "coding": [ {
          "system": "http://snomed.info/sct",
          "code": "112943005",
          "display": "Epidural injection of anesthetic substance, diagnostic, caudal, continuous"
        } ]
      },
      "subject": {
        "reference": "Patient/fe79603f-2876-45eb-a9d0-0be56d3d29a1"
      },
      "performedPeriod": {
        "start": "2026-04-19T08:00:00.000+00:00",
        "end": "2026-04-19T10:15:00.000+00:00"
      }
    },
    "request": {
      "method": "PUT",
      "url": "Procedure/f906116e-df5f-4120-910a-330a24ae88fe"
    }
  }, {
    "fullUrl": "https://madie.cms.gov/Encounter/f8339ac2-4e2f-48bd-9100-b8a1bbab0fe5",
    "resource": {
      "resourceType": "Encounter",
      "id": "f8339ac2-4e2f-48bd-9100-b8a1bbab0fe5",
      "meta": {
        "profile": [ "http://hl7.org/fhir/us/qicore/StructureDefinition/qicore-encounter" ]
      },
      "status": "finished",
      "class": {
        "system": "http://terminology.hl7.org/CodeSystem/v3-ActCode",
        "code": "IMP",
        "display": "inpatient encounter"
      },
      "type": [ {
        "coding": [ {
          "system": "http://snomed.info/sct",
          "code": "112689000",
          "display": "Hospital admission, elective, with complete pre-admission work-up"
        } ],
        "text": "Hospital admission, elective, with complete pre-admission work-up"
      } ],
      "priority": {
        "coding": [ {
          "system": "http://snomed.info/sct",
          "code": "103390000"
        } ]
      },
      "subject": {
        "reference": "Patient/fe79603f-2876-45eb-a9d0-0be56d3d29a1"
      },
      "period": {
        "start": "2026-04-10T08:00:00.000+00:00",
        "end": "2026-04-14T08:15:00.000+00:00"
      },
      "diagnosis": [ {
        "condition": {
          "reference": "Procedure/48610cd5-492f-4c5f-a2fa-c25408f5d4a7"
        },
        "rank": 1
      } ]
    },
    "request": {
      "method": "PUT",
      "url": "Encounter/f8339ac2-4e2f-48bd-9100-b8a1bbab0fe5"
    }
  }, {
    "fullUrl": "https://madie.cms.gov/Procedure/48610cd5-492f-4c5f-a2fa-c25408f5d4a7",
    "resource": {
      "resourceType": "Procedure",
      "id": "48610cd5-492f-4c5f-a2fa-c25408f5d4a7",
      "meta": {
        "profile": [ "http://hl7.org/fhir/us/qicore/StructureDefinition/qicore-procedure" ]
      },
      "extension": [ {
        "url": "http://hl7.org/fhir/us/qicore/StructureDefinition/qicore-recorded",
        "valueDateTime": "2026-04-11T10:30:00.000+00:00"
      } ],
      "status": "completed",
      "category": {
        "coding": [ {
          "system": "http://snomed.info/sct",
          "code": "18286008",
          "display": "General or neuraxial anesthesia"
        } ]
      },
      "code": {
        "coding": [ {
          "system": "http://snomed.info/sct",
          "code": "112943005",
          "display": "Epidural injection of anesthetic substance, diagnostic, caudal, continuous"
        } ]
      },
      "subject": {
        "reference": "Patient/fe79603f-2876-45eb-a9d0-0be56d3d29a1"
      },
      "performedPeriod": {
        "start": "2026-04-11T08:00:00.000+00:00",
        "end": "2026-04-11T10:15:00.000+00:00"
      }
    },
    "request": {
      "method": "PUT",
      "url": "Procedure/48610cd5-492f-4c5f-a2fa-c25408f5d4a7"
    }
  }, {
    "fullUrl": "https://madie.cms.gov/MeasureReport/9a1b04f7-dc10-48ad-9728-8697e82c7333",
    "resource": {
      "resourceType": "MeasureReport",
      "id": "9a1b04f7-dc10-48ad-9728-8697e82c7333",
      "meta": {
        "profile": [ "http://hl7.org/fhir/us/cqfmeasures/StructureDefinition/test-case-cqfm" ]
      },
      "contained": [ {
        "resourceType": "Parameters",
        "id": "b245cc81-84f5-4e05-9f07-c4bbe885c53b-parameters",
        "parameter": [ {
          "name": "subject",
          "valueString": "fe79603f-2876-45eb-a9d0-0be56d3d29a1"
        } ]
      } ],
      "extension": [ {
        "url": "http://hl7.org/fhir/StructureDefinition/cqf-inputParameters",
        "valueReference": {
          "reference": "#b245cc81-84f5-4e05-9f07-c4bbe885c53b-parameters"
        }
      }, {
        "url": "http://hl7.org/fhir/us/cqfmeasures/StructureDefinition/cqfm-testCaseDescription",
        "valueMarkdown": "Enc 1: Elective hosp with proc (anesthesia) within first 3 days of encounter. PaO2 <50 and within 48 hours of start of procedure. Meets Exc.\nEnc 2: Intubated outside of OR after first procedure. Meets Num 1. \nExc from enc 1 does not impact enc 2."
      } ],
      "modifierExtension": [ {
        "url": "http://hl7.org/fhir/us/cqfmeasures/StructureDefinition/cqfm-isTestCase",
        "valueBoolean": true
      } ],
      "status": "complete",
      "type": "individual",
      "measure": "https://madie.cms.gov/Measure/CMS1218FHIRHHRF",
      "period": {
        "start": "2026-01-01",
        "end": "2026-12-31"
      },
      "group": [ {
        "id": "Group_1",
        "population": [ {
          "id": "InitialPopulation_1",
          "code": {
            "coding": [ {
              "system": "http://terminology.hl7.org/CodeSystem/measure-population",
              "code": "initial-population",
              "display": "Initial Population"
            } ]
          },
          "count": 2
        }, {
          "id": "Denominator_1",
          "code": {
            "coding": [ {
              "system": "http://terminology.hl7.org/CodeSystem/measure-population",
              "code": "denominator",
              "display": "Denominator"
            } ]
          },
          "count": 2
        }, {
          "id": "DenominatorExclusion_1",
          "code": {
            "coding": [ {
              "system": "http://terminology.hl7.org/CodeSystem/measure-population",
              "code": "denominator-exclusion",
              "display": "Denominator Exclusion"
            } ]
          },
          "count": 1
        }, {
          "id": "Numerator_1",
          "code": {
            "coding": [ {
              "system": "http://terminology.hl7.org/CodeSystem/measure-population",
              "code": "numerator",
              "display": "Numerator"
            } ]
          },
          "count": 1
        } ],
        "measureScore": {
          "value": 0.0
        }
      } ],
      "evaluatedResource": [ {
        "reference": "Observation/4a910fd1-d4dd-4efb-8d31-3ee1fe22e4d6"
      }, {
        "reference": "Encounter/82acc4ec-5bf6-41bd-af2f-a163aa6e3060"
      }, {
        "reference": "Patient/fe79603f-2876-45eb-a9d0-0be56d3d29a1"
      }, {
        "reference": "Procedure/41bcf149-f542-4ace-9e5f-682a82d9ec4d"
      }, {
        "reference": "MeasureReport/66c606d0-3368-44a3-8314-4de3492ea9b2"
      }, {
        "reference": "Procedure/f906116e-df5f-4120-910a-330a24ae88fe"
      }, {
        "reference": "Encounter/f8339ac2-4e2f-48bd-9100-b8a1bbab0fe5"
      }, {
        "reference": "Procedure/48610cd5-492f-4c5f-a2fa-c25408f5d4a7"
      } ]
    },
    "request": {
      "method": "PUT",
      "url": "MeasureReport/9a1b04f7-dc10-48ad-9728-8697e82c7333"
    }
  } ]
}