{
  "resourceType": "Bundle",
  "id": "tests-RiskVarPassFirstHeartRate-bundle",
  "type": "transaction",
  "entry": [ {
    "fullUrl": "https://madie.cms.gov/Encounter/325b695a-e505-4c81-a2e0-e33d7facfd2e",
    "resource": {
      "resourceType": "Encounter",
      "id": "325b695a-e505-4c81-a2e0-e33d7facfd2e",
      "meta": {
        "profile": [ "http://hl7.org/fhir/us/qicore/StructureDefinition/qicore-encounter" ]
      },
      "status": "finished",
      "class": {
        "system": "http://terminology.hl7.org/CodeSystem/v3-ActCode",
        "code": "IMP",
        "display": "inpatient encounter"
      },
      "type": [ {
        "coding": [ {
          "system": "http://snomed.info/sct",
          "code": "112689000",
          "display": "Hospital admission, elective, with complete pre-admission work-up"
        } ],
        "text": "Hospital admission, elective, with complete pre-admission work-up"
      } ],
      "priority": {
        "coding": [ {
          "system": "http://snomed.info/sct",
          "code": "103390000"
        } ]
      },
      "subject": {
        "reference": "Patient/b58af351-e517-48d2-9bde-33654592f6f4"
      },
      "period": {
        "start": "2026-04-10T08:00:00.000Z",
        "end": "2026-04-14T08:15:00.000Z"
      }
    },
    "request": {
      "method": "PUT",
      "url": "Encounter/325b695a-e505-4c81-a2e0-e33d7facfd2e"
    }
  }, {
    "fullUrl": "https://madie.cms.gov/Observation/a82fb23b-2770-45e5-a31b-eaf0240a9777",
    "resource": {
      "resourceType": "Observation",
      "id": "a82fb23b-2770-45e5-a31b-eaf0240a9777",
      "meta": {
        "profile": [ "http://hl7.org/fhir/us/core/StructureDefinition/us-core-heart-rate" ]
      },
      "status": "final",
      "category": [ {
        "coding": [ {
          "system": "http://terminology.hl7.org/CodeSystem/observation-category",
          "code": "vital-signs",
          "display": "Vital Signs"
        } ]
      } ],
      "code": {
        "coding": [ {
          "system": "http://loinc.org",
          "code": "8867-4",
          "display": "Heart rate"
        } ],
        "text": "Heart rate"
      },
      "subject": {
        "reference": "Patient/b58af351-e517-48d2-9bde-33654592f6f4"
      },
      "encounter": {
        "reference": "Encounter/325b695a-e505-4c81-a2e0-e33d7facfd2e"
      },
      "effectiveDateTime": "2026-04-11T08:00:00.000Z",
      "valueQuantity": {
        "value": 44,
        "unit": "beats/min",
        "system": "http://unitsofmeasure.org",
        "code": "/min"
      }
    },
    "request": {
      "method": "PUT",
      "url": "Observation/a82fb23b-2770-45e5-a31b-eaf0240a9777"
    }
  }, {
    "fullUrl": "https://madie.cms.gov/Patient/b58af351-e517-48d2-9bde-33654592f6f4",
    "resource": {
      "resourceType": "Patient",
      "id": "b58af351-e517-48d2-9bde-33654592f6f4",
      "meta": {
        "profile": [ "http://hl7.org/fhir/us/qicore/StructureDefinition/qicore-patient" ]
      },
      "extension": [ {
        "url": "http://hl7.org/fhir/us/core/StructureDefinition/us-core-race",
        "extension": [ {
          "url": "ombCategory",
          "valueCoding": {
            "system": "urn:oid:2.16.840.1.113883.6.238",
            "code": "2054-5",
            "display": "Black or African American",
            "userSelected": true
          }
        }, {
          "url": "text",
          "valueString": "Black or African American"
        } ]
      }, {
        "url": "http://hl7.org/fhir/us/core/StructureDefinition/us-core-ethnicity",
        "extension": [ {
          "url": "ombCategory",
          "valueCoding": {
            "system": "urn:oid:2.16.840.1.113883.6.238",
            "code": "2186-5",
            "display": "Not Hispanic or Latino",
            "userSelected": true
          }
        }, {
          "url": "text",
          "valueString": "Not Hispanic or Latino"
        } ]
      } ],
      "identifier": [ {
        "type": {
          "coding": [ {
            "system": "http://terminology.hl7.org/CodeSystem/v2-0203",
            "code": "MR"
          } ]
        },
        "system": "https://bonnie-fhir.healthit.gov/",
        "value": "61152a3b98086b7a79cbd7c1"
      } ],
      "active": true,
      "name": [ {
        "use": "usual",
        "family": "DENOMPass",
        "given": [ "RiskVariableASAClass" ]
      } ],
      "gender": "female",
      "birthDate": "1966-07-12"
    },
    "request": {
      "method": "PUT",
      "url": "Patient/b58af351-e517-48d2-9bde-33654592f6f4"
    }
  }, {
    "fullUrl": "https://madie.cms.gov/Observation/fd16011d-5901-4b32-bf8b-8cbe053eb86b",
    "resource": {
      "resourceType": "Observation",
      "id": "fd16011d-5901-4b32-bf8b-8cbe053eb86b",
      "meta": {
        "profile": [ "http://hl7.org/fhir/us/core/StructureDefinition/us-core-heart-rate" ]
      },
      "status": "final",
      "category": [ {
        "coding": [ {
          "system": "http://terminology.hl7.org/CodeSystem/observation-category",
          "code": "vital-signs",
          "display": "Vital Signs"
        } ]
      } ],
      "code": {
        "coding": [ {
          "system": "http://loinc.org",
          "code": "8867-4",
          "display": "Heart rate"
        } ],
        "text": "Heart rate"
      },
      "subject": {
        "reference": "Patient/b58af351-e517-48d2-9bde-33654592f6f4"
      },
      "encounter": {
        "reference": "Encounter/325b695a-e505-4c81-a2e0-e33d7facfd2e"
      },
      "effectiveDateTime": "2026-04-11T09:00:00.000Z",
      "valueQuantity": {
        "value": 60,
        "unit": "beats/min",
        "system": "http://unitsofmeasure.org",
        "code": "/min"
      }
    },
    "request": {
      "method": "PUT",
      "url": "Observation/fd16011d-5901-4b32-bf8b-8cbe053eb86b"
    }
  }, {
    "fullUrl": "https://madie.cms.gov/Procedure/ca3b7ed4-6ba0-4d5d-b27e-c34fec7cc321",
    "resource": {
      "resourceType": "Procedure",
      "id": "ca3b7ed4-6ba0-4d5d-b27e-c34fec7cc321",
      "meta": {
        "profile": [ "http://hl7.org/fhir/us/qicore/StructureDefinition/qicore-procedure" ]
      },
      "extension": [ {
        "url": "http://hl7.org/fhir/us/qicore/StructureDefinition/qicore-recorded",
        "valueDateTime": "2026-04-11T10:30:00.000Z"
      } ],
      "status": "completed",
      "category": {
        "coding": [ {
          "system": "http://snomed.info/sct",
          "code": "18286008",
          "display": "General or neuraxial anesthesia"
        } ]
      },
      "code": {
        "coding": [ {
          "system": "http://snomed.info/sct",
          "code": "112943005",
          "display": "Epidural injection of anesthetic substance, diagnostic, caudal, continuous"
        } ]
      },
      "subject": {
        "reference": "Patient/b58af351-e517-48d2-9bde-33654592f6f4"
      },
      "performedPeriod": {
        "start": "2026-04-11T08:00:00.000Z",
        "end": "2026-04-11T10:15:00.000Z"
      }
    },
    "request": {
      "method": "PUT",
      "url": "Procedure/ca3b7ed4-6ba0-4d5d-b27e-c34fec7cc321"
    }
  }, {
    "fullUrl": "https://madie.cms.gov/MeasureReport/3c11ef17-3a74-4219-978e-983c845da8d4",
    "resource": {
      "resourceType": "MeasureReport",
      "id": "3c11ef17-3a74-4219-978e-983c845da8d4",
      "meta": {
        "profile": [ "http://hl7.org/fhir/us/cqfmeasures/StructureDefinition/test-case-cqfm" ]
      },
      "contained": [ {
        "resourceType": "Parameters",
        "id": "8ab0706d-9ab5-4a10-83a1-04e28036b8e2-parameters",
        "parameter": [ {
          "name": "subject",
          "valueString": "b58af351-e517-48d2-9bde-33654592f6f4"
        } ]
      } ],
      "extension": [ {
        "url": "http://hl7.org/fhir/StructureDefinition/cqf-inputParameters",
        "valueReference": {
          "reference": "#8ab0706d-9ab5-4a10-83a1-04e28036b8e2-parameters"
        }
      }, {
        "url": "http://hl7.org/fhir/us/cqfmeasures/StructureDefinition/cqfm-testCaseDescription",
        "valueMarkdown": "DENOMPass Satisfies First Heart Rate risk variable"
      } ],
      "modifierExtension": [ {
        "url": "http://hl7.org/fhir/us/cqfmeasures/StructureDefinition/cqfm-isTestCase",
        "valueBoolean": true
      } ],
      "status": "complete",
      "type": "individual",
      "measure": "https://madie.cms.gov/Measure/CMS1218FHIRHHRF",
      "period": {
        "start": "2026-01-01",
        "end": "2026-12-31"
      },
      "group": [ {
        "id": "Group_1",
        "population": [ {
          "id": "InitialPopulation_1",
          "code": {
            "coding": [ {
              "system": "http://terminology.hl7.org/CodeSystem/measure-population",
              "code": "initial-population",
              "display": "Initial Population"
            } ]
          },
          "count": 1
        }, {
          "id": "Denominator_1",
          "code": {
            "coding": [ {
              "system": "http://terminology.hl7.org/CodeSystem/measure-population",
              "code": "denominator",
              "display": "Denominator"
            } ]
          },
          "count": 1
        }, {
          "id": "DenominatorExclusion_1",
          "code": {
            "coding": [ {
              "system": "http://terminology.hl7.org/CodeSystem/measure-population",
              "code": "denominator-exclusion",
              "display": "Denominator Exclusion"
            } ]
          },
          "count": 0
        }, {
          "id": "Numerator_1",
          "code": {
            "coding": [ {
              "system": "http://terminology.hl7.org/CodeSystem/measure-population",
              "code": "numerator",
              "display": "Numerator"
            } ]
          },
          "count": 0
        } ],
        "measureScore": {
          "value": 0.0
        }
      } ],
      "evaluatedResource": [ {
        "reference": "Encounter/325b695a-e505-4c81-a2e0-e33d7facfd2e"
      }, {
        "reference": "Observation/a82fb23b-2770-45e5-a31b-eaf0240a9777"
      }, {
        "reference": "Patient/b58af351-e517-48d2-9bde-33654592f6f4"
      }, {
        "reference": "Observation/fd16011d-5901-4b32-bf8b-8cbe053eb86b"
      }, {
        "reference": "Procedure/ca3b7ed4-6ba0-4d5d-b27e-c34fec7cc321"
      } ]
    },
    "request": {
      "method": "PUT",
      "url": "MeasureReport/3c11ef17-3a74-4219-978e-983c845da8d4"
    }
  } ]
}