{
  "resourceType": "Bundle",
  "id": "tests-RiskVarPassFirstLeukocyte-bundle",
  "type": "transaction",
  "entry": [ {
    "fullUrl": "https://madie.cms.gov/Observation/af762107-fb73-4e45-ab1c-4726a9ccd0c1",
    "resource": {
      "resourceType": "Observation",
      "id": "af762107-fb73-4e45-ab1c-4726a9ccd0c1",
      "meta": {
        "profile": [ "http://hl7.org/fhir/us/qicore/StructureDefinition/qicore-observation-lab" ]
      },
      "status": "final",
      "category": [ {
        "coding": [ {
          "system": "http://terminology.hl7.org/CodeSystem/observation-category",
          "code": "laboratory",
          "display": "Laboratory"
        } ],
        "text": "Laboratory"
      } ],
      "code": {
        "coding": [ {
          "system": "http://loinc.org",
          "code": "6690-2",
          "display": "Leukocytes [#/volume] in Blood by Automated count"
        } ],
        "text": "Leukocytes [#/volume] in Blood by Automated count"
      },
      "subject": {
        "reference": "Patient/22a4d066-3cc2-4d39-af04-8b89c3505b17"
      },
      "encounter": {
        "reference": "Encounter/0085a49f-258b-4d8a-846a-0c9838e2a45a"
      },
      "effectiveDateTime": "2026-04-11T08:00:00.000Z",
      "valueQuantity": {
        "value": 8.9,
        "unit": "K/ul",
        "system": "http://unitsofmeasure.org",
        "code": "K/ul"
      }
    },
    "request": {
      "method": "PUT",
      "url": "Observation/af762107-fb73-4e45-ab1c-4726a9ccd0c1"
    }
  }, {
    "fullUrl": "https://madie.cms.gov/Encounter/0085a49f-258b-4d8a-846a-0c9838e2a45a",
    "resource": {
      "resourceType": "Encounter",
      "id": "0085a49f-258b-4d8a-846a-0c9838e2a45a",
      "meta": {
        "profile": [ "http://hl7.org/fhir/us/qicore/StructureDefinition/qicore-encounter" ]
      },
      "status": "finished",
      "class": {
        "system": "http://terminology.hl7.org/CodeSystem/v3-ActCode",
        "code": "IMP",
        "display": "inpatient encounter"
      },
      "type": [ {
        "coding": [ {
          "system": "http://snomed.info/sct",
          "code": "112689000",
          "display": "Hospital admission, elective, with complete pre-admission work-up"
        } ],
        "text": "Hospital admission, elective, with complete pre-admission work-up"
      } ],
      "priority": {
        "coding": [ {
          "system": "http://snomed.info/sct",
          "code": "103390000"
        } ]
      },
      "subject": {
        "reference": "Patient/22a4d066-3cc2-4d39-af04-8b89c3505b17"
      },
      "period": {
        "start": "2026-04-10T08:00:00.000Z",
        "end": "2026-04-14T08:15:00.000Z"
      }
    },
    "request": {
      "method": "PUT",
      "url": "Encounter/0085a49f-258b-4d8a-846a-0c9838e2a45a"
    }
  }, {
    "fullUrl": "https://madie.cms.gov/Patient/22a4d066-3cc2-4d39-af04-8b89c3505b17",
    "resource": {
      "resourceType": "Patient",
      "id": "22a4d066-3cc2-4d39-af04-8b89c3505b17",
      "meta": {
        "profile": [ "http://hl7.org/fhir/us/qicore/StructureDefinition/qicore-patient" ]
      },
      "extension": [ {
        "url": "http://hl7.org/fhir/us/core/StructureDefinition/us-core-race",
        "extension": [ {
          "url": "ombCategory",
          "valueCoding": {
            "system": "urn:oid:2.16.840.1.113883.6.238",
            "code": "2054-5",
            "display": "Black or African American",
            "userSelected": true
          }
        }, {
          "url": "text",
          "valueString": "Black or African American"
        } ]
      }, {
        "url": "http://hl7.org/fhir/us/core/StructureDefinition/us-core-ethnicity",
        "extension": [ {
          "url": "ombCategory",
          "valueCoding": {
            "system": "urn:oid:2.16.840.1.113883.6.238",
            "code": "2186-5",
            "display": "Not Hispanic or Latino",
            "userSelected": true
          }
        }, {
          "url": "text",
          "valueString": "Not Hispanic or Latino"
        } ]
      } ],
      "identifier": [ {
        "type": {
          "coding": [ {
            "system": "http://terminology.hl7.org/CodeSystem/v2-0203",
            "code": "MR"
          } ]
        },
        "system": "https://bonnie-fhir.healthit.gov/",
        "value": "61152a3b98086b7a79cbd7c1"
      } ],
      "active": true,
      "name": [ {
        "use": "usual",
        "family": "DENOMPass",
        "given": [ "RiskVariableASAClass" ]
      } ],
      "gender": "female",
      "birthDate": "1966-07-12"
    },
    "request": {
      "method": "PUT",
      "url": "Patient/22a4d066-3cc2-4d39-af04-8b89c3505b17"
    }
  }, {
    "fullUrl": "https://madie.cms.gov/Observation/a560dadd-28f4-46c4-84d1-b4093a220fd1",
    "resource": {
      "resourceType": "Observation",
      "id": "a560dadd-28f4-46c4-84d1-b4093a220fd1",
      "meta": {
        "profile": [ "http://hl7.org/fhir/us/qicore/StructureDefinition/qicore-observation-lab" ]
      },
      "status": "final",
      "category": [ {
        "coding": [ {
          "system": "http://terminology.hl7.org/CodeSystem/observation-category",
          "code": "laboratory",
          "display": "Laboratory"
        } ],
        "text": "Laboratory"
      } ],
      "code": {
        "coding": [ {
          "system": "http://loinc.org",
          "code": "6690-2",
          "display": "Leukocytes [#/volume] in Blood by Automated count"
        } ],
        "text": "Leukocytes [#/volume] in Blood by Automated count"
      },
      "subject": {
        "reference": "Patient/22a4d066-3cc2-4d39-af04-8b89c3505b17"
      },
      "encounter": {
        "reference": "Encounter/0085a49f-258b-4d8a-846a-0c9838e2a45a"
      },
      "effectiveDateTime": "2026-04-11T09:00:00.000Z",
      "valueQuantity": {
        "value": 6,
        "unit": "K/ul",
        "system": "http://unitsofmeasure.org",
        "code": "K/ul"
      }
    },
    "request": {
      "method": "PUT",
      "url": "Observation/a560dadd-28f4-46c4-84d1-b4093a220fd1"
    }
  }, {
    "fullUrl": "https://madie.cms.gov/Procedure/c2e162bf-3054-4f28-b257-d831d94c2762",
    "resource": {
      "resourceType": "Procedure",
      "id": "c2e162bf-3054-4f28-b257-d831d94c2762",
      "meta": {
        "profile": [ "http://hl7.org/fhir/us/qicore/StructureDefinition/qicore-procedure" ]
      },
      "extension": [ {
        "url": "http://hl7.org/fhir/us/qicore/StructureDefinition/qicore-recorded",
        "valueDateTime": "2026-04-11T10:30:00.000Z"
      } ],
      "status": "completed",
      "category": {
        "coding": [ {
          "system": "http://snomed.info/sct",
          "code": "18286008",
          "display": "General or neuraxial anesthesia"
        } ]
      },
      "code": {
        "coding": [ {
          "system": "http://snomed.info/sct",
          "code": "112943005",
          "display": "Epidural injection of anesthetic substance, diagnostic, caudal, continuous"
        } ]
      },
      "subject": {
        "reference": "Patient/22a4d066-3cc2-4d39-af04-8b89c3505b17"
      },
      "performedPeriod": {
        "start": "2026-04-11T08:00:00.000Z",
        "end": "2026-04-11T10:15:00.000Z"
      }
    },
    "request": {
      "method": "PUT",
      "url": "Procedure/c2e162bf-3054-4f28-b257-d831d94c2762"
    }
  }, {
    "fullUrl": "https://madie.cms.gov/MeasureReport/e2ae6351-f5d0-4519-90ec-33282d8c525e",
    "resource": {
      "resourceType": "MeasureReport",
      "id": "e2ae6351-f5d0-4519-90ec-33282d8c525e",
      "meta": {
        "profile": [ "http://hl7.org/fhir/us/cqfmeasures/StructureDefinition/test-case-cqfm" ]
      },
      "contained": [ {
        "resourceType": "Parameters",
        "id": "cf194f66-c3e8-4b50-bf4d-fa664c8c7999-parameters",
        "parameter": [ {
          "name": "subject",
          "valueString": "22a4d066-3cc2-4d39-af04-8b89c3505b17"
        } ]
      } ],
      "extension": [ {
        "url": "http://hl7.org/fhir/StructureDefinition/cqf-inputParameters",
        "valueReference": {
          "reference": "#cf194f66-c3e8-4b50-bf4d-fa664c8c7999-parameters"
        }
      }, {
        "url": "http://hl7.org/fhir/us/cqfmeasures/StructureDefinition/cqfm-testCaseDescription",
        "valueMarkdown": "DENOMPass.  Satisfies First Leukocyte Lab risk variable"
      } ],
      "modifierExtension": [ {
        "url": "http://hl7.org/fhir/us/cqfmeasures/StructureDefinition/cqfm-isTestCase",
        "valueBoolean": true
      } ],
      "status": "complete",
      "type": "individual",
      "measure": "https://madie.cms.gov/Measure/CMS1218FHIRHHRF",
      "period": {
        "start": "2026-01-01",
        "end": "2026-12-31"
      },
      "group": [ {
        "id": "Group_1",
        "population": [ {
          "id": "InitialPopulation_1",
          "code": {
            "coding": [ {
              "system": "http://terminology.hl7.org/CodeSystem/measure-population",
              "code": "initial-population",
              "display": "Initial Population"
            } ]
          },
          "count": 1
        }, {
          "id": "Denominator_1",
          "code": {
            "coding": [ {
              "system": "http://terminology.hl7.org/CodeSystem/measure-population",
              "code": "denominator",
              "display": "Denominator"
            } ]
          },
          "count": 1
        }, {
          "id": "DenominatorExclusion_1",
          "code": {
            "coding": [ {
              "system": "http://terminology.hl7.org/CodeSystem/measure-population",
              "code": "denominator-exclusion",
              "display": "Denominator Exclusion"
            } ]
          },
          "count": 0
        }, {
          "id": "Numerator_1",
          "code": {
            "coding": [ {
              "system": "http://terminology.hl7.org/CodeSystem/measure-population",
              "code": "numerator",
              "display": "Numerator"
            } ]
          },
          "count": 0
        } ],
        "measureScore": {
          "value": 0.0
        }
      } ],
      "evaluatedResource": [ {
        "reference": "Observation/af762107-fb73-4e45-ab1c-4726a9ccd0c1"
      }, {
        "reference": "Encounter/0085a49f-258b-4d8a-846a-0c9838e2a45a"
      }, {
        "reference": "Patient/22a4d066-3cc2-4d39-af04-8b89c3505b17"
      }, {
        "reference": "Observation/a560dadd-28f4-46c4-84d1-b4093a220fd1"
      }, {
        "reference": "Procedure/c2e162bf-3054-4f28-b257-d831d94c2762"
      } ]
    },
    "request": {
      "method": "PUT",
      "url": "MeasureReport/e2ae6351-f5d0-4519-90ec-33282d8c525e"
    }
  } ]
}