{
  "resourceType": "Bundle",
  "id": "tests-4e29d86b-a6d3-45ac-98c4-7a3e5e4f6495-bundle",
  "type": "transaction",
  "entry": [ {
    "fullUrl": "https://madie.cms.gov/Procedure/9691f376-e94d-4993-bc31-5ae2e779ba94",
    "resource": {
      "resourceType": "Procedure",
      "id": "9691f376-e94d-4993-bc31-5ae2e779ba94",
      "meta": {
        "profile": [ "http://hl7.org/fhir/us/qicore/StructureDefinition/qicore-procedure" ]
      },
      "extension": [ {
        "url": "http://hl7.org/fhir/us/qicore/StructureDefinition/qicore-recorded",
        "valueDateTime": "2026-04-12T08:10:00.000+00:00"
      } ],
      "status": "completed",
      "code": {
        "coding": [ {
          "system": "http://www.cms.gov/Medicare/Coding/ICD10",
          "code": "0BH13EZ",
          "display": "Insertion of Endotracheal Airway into Trachea, Percutaneous Approach"
        } ],
        "text": "Insertion of Endotracheal Airway into Trachea, Percutaneous Approach"
      },
      "subject": {
        "reference": "Patient/4e29d86b-a6d3-45ac-98c4-7a3e5e4f6495"
      },
      "performedDateTime": "2026-04-12T08:00:00.000+00:00"
    },
    "request": {
      "method": "PUT",
      "url": "Procedure/9691f376-e94d-4993-bc31-5ae2e779ba94"
    }
  }, {
    "fullUrl": "https://madie.cms.gov/Patient/4e29d86b-a6d3-45ac-98c4-7a3e5e4f6495",
    "resource": {
      "resourceType": "Patient",
      "id": "4e29d86b-a6d3-45ac-98c4-7a3e5e4f6495",
      "meta": {
        "profile": [ "http://hl7.org/fhir/us/qicore/StructureDefinition/qicore-patient" ]
      },
      "extension": [ {
        "url": "http://hl7.org/fhir/us/core/StructureDefinition/us-core-race",
        "extension": [ {
          "url": "ombCategory",
          "valueCoding": {
            "system": "urn:oid:2.16.840.1.113883.6.238",
            "code": "2054-5",
            "display": "Black or African American",
            "userSelected": true
          }
        }, {
          "url": "text",
          "valueString": "Black or African American"
        } ]
      }, {
        "url": "http://hl7.org/fhir/us/core/StructureDefinition/us-core-ethnicity",
        "extension": [ {
          "url": "ombCategory",
          "valueCoding": {
            "system": "urn:oid:2.16.840.1.113883.6.238",
            "code": "2186-5",
            "display": "Not Hispanic or Latino",
            "userSelected": true
          }
        }, {
          "url": "text",
          "valueString": "Not Hispanic or Latino"
        } ]
      } ],
      "identifier": [ {
        "type": {
          "coding": [ {
            "system": "http://terminology.hl7.org/CodeSystem/v2-0203",
            "code": "MR"
          } ]
        },
        "system": "https://bonnie-fhir.healthit.gov/",
        "value": "61152a3b98086b7a79cbd7c1"
      } ],
      "active": true,
      "name": [ {
        "use": "usual",
        "family": "NUMER1Pass",
        "given": [ "IntubAftFirstORrelvtDatetime" ]
      } ],
      "gender": "female",
      "birthDate": "1966-07-12"
    },
    "request": {
      "method": "PUT",
      "url": "Patient/4e29d86b-a6d3-45ac-98c4-7a3e5e4f6495"
    }
  }, {
    "fullUrl": "https://madie.cms.gov/Encounter/4d4d21e5-46c2-4060-9af4-08ae6947bef3",
    "resource": {
      "resourceType": "Encounter",
      "id": "4d4d21e5-46c2-4060-9af4-08ae6947bef3",
      "meta": {
        "profile": [ "http://hl7.org/fhir/us/qicore/StructureDefinition/qicore-encounter" ]
      },
      "status": "finished",
      "class": {
        "system": "http://terminology.hl7.org/CodeSystem/v3-ActCode",
        "code": "IMP",
        "display": "inpatient encounter"
      },
      "type": [ {
        "coding": [ {
          "system": "http://snomed.info/sct",
          "code": "112689000",
          "display": "Hospital admission, elective, with complete pre-admission work-up"
        } ],
        "text": "Hospital admission, elective, with complete pre-admission work-up"
      } ],
      "priority": {
        "coding": [ {
          "system": "http://snomed.info/sct",
          "code": "103390000"
        } ]
      },
      "subject": {
        "reference": "Patient/4e29d86b-a6d3-45ac-98c4-7a3e5e4f6495"
      },
      "period": {
        "start": "2026-04-10T08:00:00.000+00:00",
        "end": "2026-04-14T08:15:00.000+00:00"
      }
    },
    "request": {
      "method": "PUT",
      "url": "Encounter/4d4d21e5-46c2-4060-9af4-08ae6947bef3"
    }
  }, {
    "fullUrl": "https://madie.cms.gov/Procedure/a58c5de6-5e95-46a4-bb2d-b1077551612e",
    "resource": {
      "resourceType": "Procedure",
      "id": "a58c5de6-5e95-46a4-bb2d-b1077551612e",
      "meta": {
        "profile": [ "http://hl7.org/fhir/us/qicore/StructureDefinition/qicore-procedure" ]
      },
      "extension": [ {
        "url": "http://hl7.org/fhir/us/qicore/StructureDefinition/qicore-recorded",
        "valueDateTime": "2026-04-11T08:20:00.000+00:00"
      } ],
      "status": "completed",
      "category": {
        "coding": [ {
          "system": "http://snomed.info/sct",
          "code": "18286008",
          "display": "General or neuraxial anesthesia"
        } ]
      },
      "code": {
        "coding": [ {
          "system": "http://snomed.info/sct",
          "code": "112943005",
          "display": "Epidural injection of anesthetic substance, diagnostic, caudal, continuous"
        } ]
      },
      "subject": {
        "reference": "Patient/4e29d86b-a6d3-45ac-98c4-7a3e5e4f6495"
      },
      "performedDateTime": "2026-04-11T08:00:00.000+00:00"
    },
    "request": {
      "method": "PUT",
      "url": "Procedure/a58c5de6-5e95-46a4-bb2d-b1077551612e"
    }
  }, {
    "fullUrl": "https://madie.cms.gov/MeasureReport/dbacc3e7-26d4-4b8a-9dd6-b140a6f16f19",
    "resource": {
      "resourceType": "MeasureReport",
      "id": "dbacc3e7-26d4-4b8a-9dd6-b140a6f16f19",
      "meta": {
        "profile": [ "http://hl7.org/fhir/us/cqfmeasures/StructureDefinition/test-case-cqfm" ]
      },
      "contained": [ {
        "resourceType": "Parameters",
        "id": "ee9e38e5-c258-4294-b8b7-ae7e5df24536-parameters",
        "parameter": [ {
          "name": "subject",
          "valueString": "4e29d86b-a6d3-45ac-98c4-7a3e5e4f6495"
        } ]
      } ],
      "extension": [ {
        "url": "http://hl7.org/fhir/StructureDefinition/cqf-inputParameters",
        "valueReference": {
          "reference": "#ee9e38e5-c258-4294-b8b7-ae7e5df24536-parameters"
        }
      }, {
        "url": "http://hl7.org/fhir/us/cqfmeasures/StructureDefinition/cqfm-testCaseDescription",
        "valueMarkdown": "Elective hospitalization with procedure (general anesthesia) within first 3 days of encounter. \nIntubated within 30 days after end of anesthesia, outside of OR location. \nTest used relative date times. \nMeets Numerator 1."
      } ],
      "modifierExtension": [ {
        "url": "http://hl7.org/fhir/us/cqfmeasures/StructureDefinition/cqfm-isTestCase",
        "valueBoolean": true
      } ],
      "status": "complete",
      "type": "individual",
      "measure": "https://madie.cms.gov/Measure/CMS1218FHIRHHRF",
      "period": {
        "start": "2026-01-01",
        "end": "2026-12-31"
      },
      "group": [ {
        "id": "Group_1",
        "population": [ {
          "id": "InitialPopulation_1",
          "code": {
            "coding": [ {
              "system": "http://terminology.hl7.org/CodeSystem/measure-population",
              "code": "initial-population",
              "display": "Initial Population"
            } ]
          },
          "count": 1
        }, {
          "id": "Denominator_1",
          "code": {
            "coding": [ {
              "system": "http://terminology.hl7.org/CodeSystem/measure-population",
              "code": "denominator",
              "display": "Denominator"
            } ]
          },
          "count": 1
        }, {
          "id": "DenominatorExclusion_1",
          "code": {
            "coding": [ {
              "system": "http://terminology.hl7.org/CodeSystem/measure-population",
              "code": "denominator-exclusion",
              "display": "Denominator Exclusion"
            } ]
          },
          "count": 0
        }, {
          "id": "Numerator_1",
          "code": {
            "coding": [ {
              "system": "http://terminology.hl7.org/CodeSystem/measure-population",
              "code": "numerator",
              "display": "Numerator"
            } ]
          },
          "count": 1
        } ],
        "measureScore": {
          "value": 0.0
        }
      } ],
      "evaluatedResource": [ {
        "reference": "Procedure/9691f376-e94d-4993-bc31-5ae2e779ba94"
      }, {
        "reference": "Patient/4e29d86b-a6d3-45ac-98c4-7a3e5e4f6495"
      }, {
        "reference": "Encounter/4d4d21e5-46c2-4060-9af4-08ae6947bef3"
      }, {
        "reference": "Procedure/a58c5de6-5e95-46a4-bb2d-b1077551612e"
      } ]
    },
    "request": {
      "method": "PUT",
      "url": "MeasureReport/dbacc3e7-26d4-4b8a-9dd6-b140a6f16f19"
    }
  } ]
}