{
  "resourceType": "Bundle",
  "id": "tests-0b924188-db4b-45ff-a79d-761f6fd85c89-bundle",
  "type": "transaction",
  "entry": [ {
    "fullUrl": "https://madie.cms.gov/Encounter/d1c51aa0-798d-4937-8098-1edbcaf433ce",
    "resource": {
      "resourceType": "Encounter",
      "id": "d1c51aa0-798d-4937-8098-1edbcaf433ce",
      "meta": {
        "profile": [ "http://hl7.org/fhir/us/qicore/StructureDefinition/qicore-encounter" ]
      },
      "status": "finished",
      "class": {
        "system": "http://terminology.hl7.org/CodeSystem/v3-ActCode",
        "code": "IMP",
        "display": "inpatient encounter"
      },
      "type": [ {
        "coding": [ {
          "system": "http://snomed.info/sct",
          "code": "112689000",
          "display": "Hospital admission, elective, with complete pre-admission work-up"
        } ],
        "text": "Hospital admission, elective, with complete pre-admission work-up"
      } ],
      "priority": {
        "coding": [ {
          "system": "http://snomed.info/sct",
          "code": "103390000"
        } ]
      },
      "subject": {
        "reference": "Patient/0b924188-db4b-45ff-a79d-761f6fd85c89"
      },
      "period": {
        "start": "2026-04-10T08:00:00.000+00:00",
        "end": "2026-04-14T08:15:00.000+00:00"
      }
    },
    "request": {
      "method": "PUT",
      "url": "Encounter/d1c51aa0-798d-4937-8098-1edbcaf433ce"
    }
  }, {
    "fullUrl": "https://madie.cms.gov/Procedure/5892f7cf-5a97-43c5-b089-bc9b2278950b",
    "resource": {
      "resourceType": "Procedure",
      "id": "5892f7cf-5a97-43c5-b089-bc9b2278950b",
      "meta": {
        "profile": [ "http://hl7.org/fhir/us/qicore/StructureDefinition/qicore-procedure" ]
      },
      "extension": [ {
        "url": "http://hl7.org/fhir/us/qicore/StructureDefinition/qicore-recorded",
        "valueDateTime": "2026-04-11T10:20:00.000+00:00"
      } ],
      "status": "completed",
      "category": {
        "coding": [ {
          "system": "http://snomed.info/sct",
          "code": "18286008",
          "display": "General or neuraxial anesthesia"
        } ]
      },
      "code": {
        "coding": [ {
          "system": "http://snomed.info/sct",
          "code": "112943005",
          "display": "Epidural injection of anesthetic substance, diagnostic, caudal, continuous"
        } ]
      },
      "subject": {
        "reference": "Patient/0b924188-db4b-45ff-a79d-761f6fd85c89"
      },
      "performedPeriod": {
        "start": "2026-04-11T08:00:00.000+00:00",
        "end": "2026-04-11T10:15:00.000+00:00"
      }
    },
    "request": {
      "method": "PUT",
      "url": "Procedure/5892f7cf-5a97-43c5-b089-bc9b2278950b"
    }
  }, {
    "fullUrl": "https://madie.cms.gov/Procedure/1b481ffe-8555-453b-9384-ea70a94a0fcb",
    "resource": {
      "resourceType": "Procedure",
      "id": "1b481ffe-8555-453b-9384-ea70a94a0fcb",
      "meta": {
        "profile": [ "http://hl7.org/fhir/us/qicore/StructureDefinition/qicore-procedure" ]
      },
      "extension": [ {
        "url": "http://hl7.org/fhir/us/qicore/StructureDefinition/qicore-recorded",
        "valueDateTime": "2026-04-12T07:20:00.000+00:00"
      } ],
      "status": "completed",
      "category": {
        "coding": [ {
          "system": "http://snomed.info/sct",
          "code": "18286008",
          "display": "General or neuraxial anesthesia"
        } ]
      },
      "code": {
        "coding": [ {
          "system": "http://snomed.info/sct",
          "code": "112943005",
          "display": "Epidural injection of anesthetic substance, diagnostic, caudal, continuous"
        } ]
      },
      "subject": {
        "reference": "Patient/0b924188-db4b-45ff-a79d-761f6fd85c89"
      },
      "performedPeriod": {
        "start": "2026-04-12T07:00:00.000+00:00",
        "end": "2026-04-12T07:15:00.000+00:00"
      }
    },
    "request": {
      "method": "PUT",
      "url": "Procedure/1b481ffe-8555-453b-9384-ea70a94a0fcb"
    }
  }, {
    "fullUrl": "https://madie.cms.gov/Patient/0b924188-db4b-45ff-a79d-761f6fd85c89",
    "resource": {
      "resourceType": "Patient",
      "id": "0b924188-db4b-45ff-a79d-761f6fd85c89",
      "meta": {
        "profile": [ "http://hl7.org/fhir/us/qicore/StructureDefinition/qicore-patient" ]
      },
      "extension": [ {
        "url": "http://hl7.org/fhir/us/core/StructureDefinition/us-core-race",
        "extension": [ {
          "url": "ombCategory",
          "valueCoding": {
            "system": "urn:oid:2.16.840.1.113883.6.238",
            "code": "2054-5",
            "display": "Black or African American",
            "userSelected": true
          }
        }, {
          "url": "text",
          "valueString": "Black or African American"
        } ]
      }, {
        "url": "http://hl7.org/fhir/us/core/StructureDefinition/us-core-ethnicity",
        "extension": [ {
          "url": "ombCategory",
          "valueCoding": {
            "system": "urn:oid:2.16.840.1.113883.6.238",
            "code": "2186-5",
            "display": "Not Hispanic or Latino",
            "userSelected": true
          }
        }, {
          "url": "text",
          "valueString": "Not Hispanic or Latino"
        } ]
      } ],
      "identifier": [ {
        "type": {
          "coding": [ {
            "system": "http://terminology.hl7.org/CodeSystem/v2-0203",
            "code": "MR"
          } ]
        },
        "system": "https://bonnie-fhir.healthit.gov/",
        "value": "61152a3b98086b7a79cbd7c1"
      } ],
      "active": true,
      "name": [ {
        "use": "usual",
        "family": "NUMER1Pass",
        "given": [ "IntubAft2Proc" ]
      } ],
      "gender": "female",
      "birthDate": "1966-07-12"
    },
    "request": {
      "method": "PUT",
      "url": "Patient/0b924188-db4b-45ff-a79d-761f6fd85c89"
    }
  }, {
    "fullUrl": "https://madie.cms.gov/Procedure/91dabb76-a376-4eb0-b8bf-95e5008efb51",
    "resource": {
      "resourceType": "Procedure",
      "id": "91dabb76-a376-4eb0-b8bf-95e5008efb51",
      "meta": {
        "profile": [ "http://hl7.org/fhir/us/qicore/StructureDefinition/qicore-procedure" ]
      },
      "extension": [ {
        "url": "http://hl7.org/fhir/us/qicore/StructureDefinition/qicore-recorded",
        "valueDateTime": "2026-04-13T08:10:00.000+00:00"
      } ],
      "status": "completed",
      "code": {
        "coding": [ {
          "system": "http://www.cms.gov/Medicare/Coding/ICD10",
          "code": "0BH13EZ",
          "display": "Insertion of Endotracheal Airway into Trachea, Percutaneous Approach"
        } ],
        "text": "Insertion of Endotracheal Airway into Trachea, Percutaneous Approach"
      },
      "subject": {
        "reference": "Patient/0b924188-db4b-45ff-a79d-761f6fd85c89"
      },
      "performedPeriod": {
        "start": "2026-04-12T07:16:00.000+00:00",
        "end": "2026-04-13T07:15:00.000+00:00"
      }
    },
    "request": {
      "method": "PUT",
      "url": "Procedure/91dabb76-a376-4eb0-b8bf-95e5008efb51"
    }
  }, {
    "fullUrl": "https://madie.cms.gov/MeasureReport/475279d3-72af-4724-985e-7a9098d12307",
    "resource": {
      "resourceType": "MeasureReport",
      "id": "475279d3-72af-4724-985e-7a9098d12307",
      "meta": {
        "profile": [ "http://hl7.org/fhir/us/cqfmeasures/StructureDefinition/test-case-cqfm" ]
      },
      "contained": [ {
        "resourceType": "Parameters",
        "id": "9371b648-b5f0-4fb0-9916-11c4054abda8-parameters",
        "parameter": [ {
          "name": "subject",
          "valueString": "0b924188-db4b-45ff-a79d-761f6fd85c89"
        } ]
      } ],
      "extension": [ {
        "url": "http://hl7.org/fhir/StructureDefinition/cqf-inputParameters",
        "valueReference": {
          "reference": "#9371b648-b5f0-4fb0-9916-11c4054abda8-parameters"
        }
      }, {
        "url": "http://hl7.org/fhir/us/cqfmeasures/StructureDefinition/cqfm-testCaseDescription",
        "valueMarkdown": "Intubation after 2nd procedure"
      } ],
      "modifierExtension": [ {
        "url": "http://hl7.org/fhir/us/cqfmeasures/StructureDefinition/cqfm-isTestCase",
        "valueBoolean": true
      } ],
      "status": "complete",
      "type": "individual",
      "measure": "https://madie.cms.gov/Measure/CMS1218FHIRHHRF",
      "period": {
        "start": "2026-01-01",
        "end": "2026-12-31"
      },
      "group": [ {
        "id": "Group_1",
        "population": [ {
          "id": "InitialPopulation_1",
          "code": {
            "coding": [ {
              "system": "http://terminology.hl7.org/CodeSystem/measure-population",
              "code": "initial-population",
              "display": "Initial Population"
            } ]
          },
          "count": 1
        }, {
          "id": "Denominator_1",
          "code": {
            "coding": [ {
              "system": "http://terminology.hl7.org/CodeSystem/measure-population",
              "code": "denominator",
              "display": "Denominator"
            } ]
          },
          "count": 1
        }, {
          "id": "DenominatorExclusion_1",
          "code": {
            "coding": [ {
              "system": "http://terminology.hl7.org/CodeSystem/measure-population",
              "code": "denominator-exclusion",
              "display": "Denominator Exclusion"
            } ]
          },
          "count": 0
        }, {
          "id": "Numerator_1",
          "code": {
            "coding": [ {
              "system": "http://terminology.hl7.org/CodeSystem/measure-population",
              "code": "numerator",
              "display": "Numerator"
            } ]
          },
          "count": 1
        } ],
        "measureScore": {
          "value": 0.0
        }
      } ],
      "evaluatedResource": [ {
        "reference": "Encounter/d1c51aa0-798d-4937-8098-1edbcaf433ce"
      }, {
        "reference": "Procedure/5892f7cf-5a97-43c5-b089-bc9b2278950b"
      }, {
        "reference": "Procedure/1b481ffe-8555-453b-9384-ea70a94a0fcb"
      }, {
        "reference": "Patient/0b924188-db4b-45ff-a79d-761f6fd85c89"
      }, {
        "reference": "Procedure/91dabb76-a376-4eb0-b8bf-95e5008efb51"
      } ]
    },
    "request": {
      "method": "PUT",
      "url": "MeasureReport/475279d3-72af-4724-985e-7a9098d12307"
    }
  } ]
}