{
  "resourceType": "Bundle",
  "id": "tests-8c1d0b6e-067f-4a0b-b4c5-adec7b2aeeef-bundle",
  "type": "transaction",
  "entry": [ {
    "fullUrl": "https://madie.cms.gov/Encounter/2caa25c2-38d7-4c9a-81a3-38fae41cbb0b",
    "resource": {
      "resourceType": "Encounter",
      "id": "2caa25c2-38d7-4c9a-81a3-38fae41cbb0b",
      "meta": {
        "profile": [ "http://hl7.org/fhir/us/qicore/StructureDefinition/qicore-encounter" ]
      },
      "status": "finished",
      "class": {
        "system": "http://terminology.hl7.org/CodeSystem/v3-ActCode",
        "code": "IMP",
        "display": "inpatient encounter"
      },
      "type": [ {
        "coding": [ {
          "system": "http://snomed.info/sct",
          "code": "112689000",
          "display": "Hospital admission, elective, with complete pre-admission work-up"
        } ],
        "text": "Hospital admission, elective, with complete pre-admission work-up"
      } ],
      "priority": {
        "coding": [ {
          "system": "http://snomed.info/sct",
          "code": "103390000"
        } ]
      },
      "subject": {
        "reference": "Patient/8c1d0b6e-067f-4a0b-b4c5-adec7b2aeeef"
      },
      "period": {
        "start": "2026-04-10T08:00:00.000Z",
        "end": "2026-04-14T08:15:00.000Z"
      }
    },
    "request": {
      "method": "PUT",
      "url": "Encounter/2caa25c2-38d7-4c9a-81a3-38fae41cbb0b"
    }
  }, {
    "fullUrl": "https://madie.cms.gov/Observation/c9de04ad-6515-4fe6-8e3f-ea80da6a02f5",
    "resource": {
      "resourceType": "Observation",
      "id": "c9de04ad-6515-4fe6-8e3f-ea80da6a02f5",
      "meta": {
        "profile": [ "http://hl7.org/fhir/us/qicore/StructureDefinition/qicore-observation-lab" ]
      },
      "status": "final",
      "category": [ {
        "coding": [ {
          "system": "http://terminology.hl7.org/CodeSystem/observation-category",
          "code": "laboratory",
          "display": "Laboratory"
        } ],
        "text": "Laboratory"
      } ],
      "code": {
        "coding": [ {
          "system": "http://loinc.org",
          "code": "13056-7",
          "display": "Platelets [#/volume] in Plasma by Automated count"
        } ],
        "text": "Hemoglobin Lab Test"
      },
      "subject": {
        "reference": "Patient/8c1d0b6e-067f-4a0b-b4c5-adec7b2aeeef"
      },
      "encounter": {
        "reference": "Encounter/2caa25c2-38d7-4c9a-81a3-38fae41cbb0b"
      },
      "effectiveDateTime": "2026-04-12T08:00:00.000Z",
      "valueQuantity": {
        "value": 1200,
        "unit": "/mm3",
        "system": "http://unitsofmeasure.org",
        "code": "/mm3"
      }
    },
    "request": {
      "method": "PUT",
      "url": "Observation/c9de04ad-6515-4fe6-8e3f-ea80da6a02f5"
    }
  }, {
    "fullUrl": "https://madie.cms.gov/Patient/8c1d0b6e-067f-4a0b-b4c5-adec7b2aeeef",
    "resource": {
      "resourceType": "Patient",
      "id": "8c1d0b6e-067f-4a0b-b4c5-adec7b2aeeef",
      "meta": {
        "profile": [ "http://hl7.org/fhir/us/qicore/StructureDefinition/qicore-patient" ]
      },
      "extension": [ {
        "url": "http://hl7.org/fhir/us/core/StructureDefinition/us-core-race",
        "extension": [ {
          "url": "ombCategory",
          "valueCoding": {
            "system": "urn:oid:2.16.840.1.113883.6.238",
            "code": "2054-5",
            "display": "Black or African American",
            "userSelected": true
          }
        }, {
          "url": "text",
          "valueString": "Black or African American"
        } ]
      }, {
        "url": "http://hl7.org/fhir/us/core/StructureDefinition/us-core-ethnicity",
        "extension": [ {
          "url": "ombCategory",
          "valueCoding": {
            "system": "urn:oid:2.16.840.1.113883.6.238",
            "code": "2186-5",
            "display": "Not Hispanic or Latino",
            "userSelected": true
          }
        }, {
          "url": "text",
          "valueString": "Not Hispanic or Latino"
        } ]
      } ],
      "identifier": [ {
        "type": {
          "coding": [ {
            "system": "http://terminology.hl7.org/CodeSystem/v2-0203",
            "code": "MR"
          } ]
        },
        "system": "https://bonnie-fhir.healthit.gov/",
        "value": "61152a3b98086b7a79cbd7c1"
      } ],
      "active": true,
      "name": [ {
        "use": "usual",
        "family": "DENOMPass",
        "given": [ "RiskVariableFirstPlateletmm3Units" ]
      } ],
      "gender": "female",
      "birthDate": "1966-07-12"
    },
    "request": {
      "method": "PUT",
      "url": "Patient/8c1d0b6e-067f-4a0b-b4c5-adec7b2aeeef"
    }
  }, {
    "fullUrl": "https://madie.cms.gov/Procedure/893b6733-2761-4147-9f62-97f77ff2d588",
    "resource": {
      "resourceType": "Procedure",
      "id": "893b6733-2761-4147-9f62-97f77ff2d588",
      "meta": {
        "profile": [ "http://hl7.org/fhir/us/qicore/StructureDefinition/qicore-procedure" ]
      },
      "extension": [ {
        "url": "http://hl7.org/fhir/us/qicore/StructureDefinition/qicore-recorded",
        "valueDateTime": "2026-04-11T10:30:00.000Z"
      } ],
      "status": "completed",
      "category": {
        "coding": [ {
          "system": "http://snomed.info/sct",
          "code": "18286008",
          "display": "General or neuraxial anesthesia"
        } ]
      },
      "code": {
        "coding": [ {
          "system": "http://snomed.info/sct",
          "code": "112943005",
          "display": "Epidural injection of anesthetic substance, diagnostic, caudal, continuous"
        } ]
      },
      "subject": {
        "reference": "Patient/8c1d0b6e-067f-4a0b-b4c5-adec7b2aeeef"
      },
      "performedPeriod": {
        "start": "2026-04-11T08:00:00.000Z",
        "end": "2026-04-11T10:15:00.000Z"
      }
    },
    "request": {
      "method": "PUT",
      "url": "Procedure/893b6733-2761-4147-9f62-97f77ff2d588"
    }
  }, {
    "fullUrl": "https://madie.cms.gov/Observation/9b8983cf-fe95-4ef4-86e6-babed565bda0",
    "resource": {
      "resourceType": "Observation",
      "id": "9b8983cf-fe95-4ef4-86e6-babed565bda0",
      "meta": {
        "profile": [ "http://hl7.org/fhir/us/qicore/StructureDefinition/qicore-observation-lab" ]
      },
      "status": "final",
      "category": [ {
        "coding": [ {
          "system": "http://terminology.hl7.org/CodeSystem/observation-category",
          "code": "laboratory",
          "display": "Laboratory"
        } ],
        "text": "Laboratory"
      } ],
      "code": {
        "coding": [ {
          "system": "http://loinc.org",
          "code": "13056-7",
          "display": "Platelets [#/volume] in Plasma by Automated count"
        } ],
        "text": "Platelets [#/volume] in Plasma by Automated count"
      },
      "subject": {
        "reference": "Patient/8c1d0b6e-067f-4a0b-b4c5-adec7b2aeeef"
      },
      "encounter": {
        "reference": "Encounter/2caa25c2-38d7-4c9a-81a3-38fae41cbb0b"
      },
      "effectiveDateTime": "2026-04-11T08:00:00.000Z",
      "valueQuantity": {
        "value": 1000,
        "unit": "/mm3",
        "system": "http://unitsofmeasure.org",
        "code": "/mm3"
      }
    },
    "request": {
      "method": "PUT",
      "url": "Observation/9b8983cf-fe95-4ef4-86e6-babed565bda0"
    }
  }, {
    "fullUrl": "https://madie.cms.gov/MeasureReport/e0ae9dd8-a902-4a45-8f6a-0a588aabf733",
    "resource": {
      "resourceType": "MeasureReport",
      "id": "e0ae9dd8-a902-4a45-8f6a-0a588aabf733",
      "meta": {
        "profile": [ "http://hl7.org/fhir/us/cqfmeasures/StructureDefinition/test-case-cqfm" ]
      },
      "contained": [ {
        "resourceType": "Parameters",
        "id": "7c5cd7eb-e84c-4754-b009-2c339e23e633-parameters",
        "parameter": [ {
          "name": "subject",
          "valueString": "8c1d0b6e-067f-4a0b-b4c5-adec7b2aeeef"
        } ]
      } ],
      "extension": [ {
        "url": "http://hl7.org/fhir/StructureDefinition/cqf-inputParameters",
        "valueReference": {
          "reference": "#7c5cd7eb-e84c-4754-b009-2c339e23e633-parameters"
        }
      }, {
        "url": "http://hl7.org/fhir/us/cqfmeasures/StructureDefinition/cqfm-testCaseDescription",
        "valueMarkdown": "  Elective hospitalization with procedure (general anesthesia) within first 3 days of encounter. Meets IPP/Denom. RV test includes 2 platelet values; RV displays the first (10000 10*9/L) not the second (12000 10*9/L), as expected. \n"
      } ],
      "modifierExtension": [ {
        "url": "http://hl7.org/fhir/us/cqfmeasures/StructureDefinition/cqfm-isTestCase",
        "valueBoolean": true
      } ],
      "status": "complete",
      "type": "individual",
      "measure": "https://madie.cms.gov/Measure/CMS1218FHIRHHRF",
      "period": {
        "start": "2026-01-01",
        "end": "2026-12-31"
      },
      "group": [ {
        "id": "Group_1",
        "population": [ {
          "id": "InitialPopulation_1",
          "code": {
            "coding": [ {
              "system": "http://terminology.hl7.org/CodeSystem/measure-population",
              "code": "initial-population",
              "display": "Initial Population"
            } ]
          },
          "count": 1
        }, {
          "id": "Denominator_1",
          "code": {
            "coding": [ {
              "system": "http://terminology.hl7.org/CodeSystem/measure-population",
              "code": "denominator",
              "display": "Denominator"
            } ]
          },
          "count": 1
        }, {
          "id": "DenominatorExclusion_1",
          "code": {
            "coding": [ {
              "system": "http://terminology.hl7.org/CodeSystem/measure-population",
              "code": "denominator-exclusion",
              "display": "Denominator Exclusion"
            } ]
          },
          "count": 0
        }, {
          "id": "Numerator_1",
          "code": {
            "coding": [ {
              "system": "http://terminology.hl7.org/CodeSystem/measure-population",
              "code": "numerator",
              "display": "Numerator"
            } ]
          },
          "count": 0
        } ],
        "measureScore": {
          "value": 0.0
        }
      } ],
      "evaluatedResource": [ {
        "reference": "Encounter/2caa25c2-38d7-4c9a-81a3-38fae41cbb0b"
      }, {
        "reference": "Observation/c9de04ad-6515-4fe6-8e3f-ea80da6a02f5"
      }, {
        "reference": "Patient/8c1d0b6e-067f-4a0b-b4c5-adec7b2aeeef"
      }, {
        "reference": "Procedure/893b6733-2761-4147-9f62-97f77ff2d588"
      }, {
        "reference": "Observation/9b8983cf-fe95-4ef4-86e6-babed565bda0"
      } ]
    },
    "request": {
      "method": "PUT",
      "url": "MeasureReport/e0ae9dd8-a902-4a45-8f6a-0a588aabf733"
    }
  } ]
}