{
  "resourceType": "Bundle",
  "id": "tests-RiskVarPassFirstHematocrit-bundle",
  "type": "transaction",
  "entry": [ {
    "fullUrl": "https://madie.cms.gov/Encounter/963997b7-c442-488e-b1ea-433dc50e7d4e",
    "resource": {
      "resourceType": "Encounter",
      "id": "963997b7-c442-488e-b1ea-433dc50e7d4e",
      "meta": {
        "profile": [ "http://hl7.org/fhir/us/qicore/StructureDefinition/qicore-encounter" ]
      },
      "status": "finished",
      "class": {
        "system": "http://terminology.hl7.org/CodeSystem/v3-ActCode",
        "code": "IMP",
        "display": "inpatient encounter"
      },
      "type": [ {
        "coding": [ {
          "system": "http://snomed.info/sct",
          "code": "112689000",
          "display": "Hospital admission, elective, with complete pre-admission work-up"
        } ],
        "text": "Hospital admission, elective, with complete pre-admission work-up"
      } ],
      "priority": {
        "coding": [ {
          "system": "http://snomed.info/sct",
          "code": "103390000"
        } ]
      },
      "subject": {
        "reference": "Patient/0c76341a-34f1-4d1b-9bbe-5915e00a0818"
      },
      "period": {
        "start": "2026-04-10T08:00:00.000Z",
        "end": "2026-04-14T08:15:00.000Z"
      }
    },
    "request": {
      "method": "PUT",
      "url": "Encounter/963997b7-c442-488e-b1ea-433dc50e7d4e"
    }
  }, {
    "fullUrl": "https://madie.cms.gov/Observation/249f17aa-06d3-4bea-985e-e8ecb77b7074",
    "resource": {
      "resourceType": "Observation",
      "id": "249f17aa-06d3-4bea-985e-e8ecb77b7074",
      "meta": {
        "profile": [ "http://hl7.org/fhir/us/qicore/StructureDefinition/qicore-observation-lab" ]
      },
      "status": "final",
      "category": [ {
        "coding": [ {
          "system": "http://terminology.hl7.org/CodeSystem/observation-category",
          "code": "laboratory",
          "display": "Laboratory"
        } ],
        "text": "Laboratory"
      } ],
      "code": {
        "coding": [ {
          "system": "http://loinc.org",
          "version": "2.76",
          "code": "31100-1",
          "display": "Hematocrit [Volume Fraction] of Blood by Impedance"
        } ],
        "text": "Hematocrit [Volume Fraction] of Blood by Impedance"
      },
      "subject": {
        "reference": "Patient/0c76341a-34f1-4d1b-9bbe-5915e00a0818"
      },
      "encounter": {
        "reference": "Encounter/963997b7-c442-488e-b1ea-433dc50e7d4e"
      },
      "effectiveDateTime": "2026-04-11T09:00:00.000Z"
    },
    "request": {
      "method": "PUT",
      "url": "Observation/249f17aa-06d3-4bea-985e-e8ecb77b7074"
    }
  }, {
    "fullUrl": "https://madie.cms.gov/Observation/94a6cc33-36a1-4eff-a9a5-d4e080b5a7c5",
    "resource": {
      "resourceType": "Observation",
      "id": "94a6cc33-36a1-4eff-a9a5-d4e080b5a7c5",
      "meta": {
        "profile": [ "http://hl7.org/fhir/us/qicore/StructureDefinition/qicore-observation-lab" ]
      },
      "status": "final",
      "category": [ {
        "coding": [ {
          "system": "http://terminology.hl7.org/CodeSystem/observation-category",
          "code": "laboratory",
          "display": "Laboratory"
        } ],
        "text": "Laboratory"
      } ],
      "code": {
        "coding": [ {
          "system": "http://loinc.org",
          "version": "2.76",
          "code": "31100-1",
          "display": "Hematocrit [Volume Fraction] of Blood by Impedance"
        } ],
        "text": "Hematocrit [Volume Fraction] of Blood by Impedance"
      },
      "subject": {
        "reference": "Patient/0c76341a-34f1-4d1b-9bbe-5915e00a0818"
      },
      "encounter": {
        "reference": "Encounter/963997b7-c442-488e-b1ea-433dc50e7d4e"
      },
      "effectiveDateTime": "2026-04-11T08:00:00.000Z",
      "valueQuantity": {
        "value": 41.5,
        "unit": "l/l",
        "system": "http://unitsofmeasure.org",
        "code": "l/l"
      }
    },
    "request": {
      "method": "PUT",
      "url": "Observation/94a6cc33-36a1-4eff-a9a5-d4e080b5a7c5"
    }
  }, {
    "fullUrl": "https://madie.cms.gov/Procedure/3e6be40e-8908-4afc-8170-9a8dc6e9e29b",
    "resource": {
      "resourceType": "Procedure",
      "id": "3e6be40e-8908-4afc-8170-9a8dc6e9e29b",
      "meta": {
        "profile": [ "http://hl7.org/fhir/us/qicore/StructureDefinition/qicore-procedure" ]
      },
      "extension": [ {
        "url": "http://hl7.org/fhir/us/qicore/StructureDefinition/qicore-recorded",
        "valueDateTime": "2026-04-11T10:30:00.000Z"
      } ],
      "status": "completed",
      "category": {
        "coding": [ {
          "system": "http://snomed.info/sct",
          "code": "18286008",
          "display": "General or neuraxial anesthesia"
        } ]
      },
      "code": {
        "coding": [ {
          "system": "http://snomed.info/sct",
          "code": "112943005",
          "display": "Epidural injection of anesthetic substance, diagnostic, caudal, continuous"
        } ]
      },
      "subject": {
        "reference": "Patient/0c76341a-34f1-4d1b-9bbe-5915e00a0818"
      },
      "performedPeriod": {
        "start": "2026-04-11T08:00:00.000Z",
        "end": "2026-04-11T10:15:00.000Z"
      }
    },
    "request": {
      "method": "PUT",
      "url": "Procedure/3e6be40e-8908-4afc-8170-9a8dc6e9e29b"
    }
  }, {
    "fullUrl": "https://madie.cms.gov/Patient/0c76341a-34f1-4d1b-9bbe-5915e00a0818",
    "resource": {
      "resourceType": "Patient",
      "id": "0c76341a-34f1-4d1b-9bbe-5915e00a0818",
      "meta": {
        "profile": [ "http://hl7.org/fhir/us/qicore/StructureDefinition/qicore-patient" ]
      },
      "extension": [ {
        "url": "http://hl7.org/fhir/us/core/StructureDefinition/us-core-race",
        "extension": [ {
          "url": "ombCategory",
          "valueCoding": {
            "system": "urn:oid:2.16.840.1.113883.6.238",
            "code": "2054-5",
            "display": "Black or African American",
            "userSelected": true
          }
        }, {
          "url": "text",
          "valueString": "Black or African American"
        } ]
      }, {
        "url": "http://hl7.org/fhir/us/core/StructureDefinition/us-core-ethnicity",
        "extension": [ {
          "url": "ombCategory",
          "valueCoding": {
            "system": "urn:oid:2.16.840.1.113883.6.238",
            "code": "2186-5",
            "display": "Not Hispanic or Latino",
            "userSelected": true
          }
        }, {
          "url": "text",
          "valueString": "Not Hispanic or Latino"
        } ]
      } ],
      "identifier": [ {
        "type": {
          "coding": [ {
            "system": "http://terminology.hl7.org/CodeSystem/v2-0203",
            "code": "MR"
          } ]
        },
        "system": "https://bonnie-fhir.healthit.gov/",
        "value": "61152a3b98086b7a79cbd7c1"
      } ],
      "active": true,
      "name": [ {
        "use": "usual",
        "family": "DENOMPass",
        "given": [ "RiskVariableASAClass" ]
      } ],
      "gender": "female",
      "birthDate": "1966-07-12"
    },
    "request": {
      "method": "PUT",
      "url": "Patient/0c76341a-34f1-4d1b-9bbe-5915e00a0818"
    }
  }, {
    "fullUrl": "https://madie.cms.gov/MeasureReport/97f763d2-b20a-49d3-8f79-aafc04959f19",
    "resource": {
      "resourceType": "MeasureReport",
      "id": "97f763d2-b20a-49d3-8f79-aafc04959f19",
      "meta": {
        "profile": [ "http://hl7.org/fhir/us/cqfmeasures/StructureDefinition/test-case-cqfm" ]
      },
      "contained": [ {
        "resourceType": "Parameters",
        "id": "1d430ab8-ce60-408e-89a1-143c4faf1da7-parameters",
        "parameter": [ {
          "name": "subject",
          "valueString": "0c76341a-34f1-4d1b-9bbe-5915e00a0818"
        } ]
      } ],
      "extension": [ {
        "url": "http://hl7.org/fhir/StructureDefinition/cqf-inputParameters",
        "valueReference": {
          "reference": "#1d430ab8-ce60-408e-89a1-143c4faf1da7-parameters"
        }
      }, {
        "url": "http://hl7.org/fhir/us/cqfmeasures/StructureDefinition/cqfm-testCaseDescription",
        "valueMarkdown": "DENOMPass Satisfies First Hematocrit risk variable"
      } ],
      "modifierExtension": [ {
        "url": "http://hl7.org/fhir/us/cqfmeasures/StructureDefinition/cqfm-isTestCase",
        "valueBoolean": true
      } ],
      "status": "complete",
      "type": "individual",
      "measure": "https://madie.cms.gov/Measure/CMS1218FHIRHHRF",
      "period": {
        "start": "2026-01-01",
        "end": "2026-12-31"
      },
      "group": [ {
        "id": "Group_1",
        "population": [ {
          "id": "InitialPopulation_1",
          "code": {
            "coding": [ {
              "system": "http://terminology.hl7.org/CodeSystem/measure-population",
              "code": "initial-population",
              "display": "Initial Population"
            } ]
          },
          "count": 1
        }, {
          "id": "Denominator_1",
          "code": {
            "coding": [ {
              "system": "http://terminology.hl7.org/CodeSystem/measure-population",
              "code": "denominator",
              "display": "Denominator"
            } ]
          },
          "count": 1
        }, {
          "id": "DenominatorExclusion_1",
          "code": {
            "coding": [ {
              "system": "http://terminology.hl7.org/CodeSystem/measure-population",
              "code": "denominator-exclusion",
              "display": "Denominator Exclusion"
            } ]
          },
          "count": 0
        }, {
          "id": "Numerator_1",
          "code": {
            "coding": [ {
              "system": "http://terminology.hl7.org/CodeSystem/measure-population",
              "code": "numerator",
              "display": "Numerator"
            } ]
          },
          "count": 0
        } ],
        "measureScore": {
          "value": 0.0
        }
      } ],
      "evaluatedResource": [ {
        "reference": "Encounter/963997b7-c442-488e-b1ea-433dc50e7d4e"
      }, {
        "reference": "Observation/249f17aa-06d3-4bea-985e-e8ecb77b7074"
      }, {
        "reference": "Observation/94a6cc33-36a1-4eff-a9a5-d4e080b5a7c5"
      }, {
        "reference": "Procedure/3e6be40e-8908-4afc-8170-9a8dc6e9e29b"
      }, {
        "reference": "Patient/0c76341a-34f1-4d1b-9bbe-5915e00a0818"
      } ]
    },
    "request": {
      "method": "PUT",
      "url": "MeasureReport/97f763d2-b20a-49d3-8f79-aafc04959f19"
    }
  } ]
}