{
  "resourceType": "Bundle",
  "id": "tests-NumerPass-RVwithAntihypertensiveOrderAtAdmission-bundle",
  "type": "transaction",
  "entry": [ {
    "fullUrl": "https://madie.cms.gov/Encounter/e67b107c-4d28-408d-a428-a21629ef94f9",
    "resource": {
      "resourceType": "Encounter",
      "id": "e67b107c-4d28-408d-a428-a21629ef94f9",
      "meta": {
        "profile": [ "http://hl7.org/fhir/us/qicore/StructureDefinition/qicore-encounter" ]
      },
      "status": "finished",
      "class": {
        "system": "http://terminology.hl7.org/CodeSystem/v3-ActCode",
        "code": "IMP",
        "display": "inpatient encounter"
      },
      "type": [ {
        "coding": [ {
          "system": "http://snomed.info/sct",
          "code": "183452005"
        } ]
      } ],
      "subject": {
        "reference": "Patient/56d5fe48-53b2-4599-870c-58bfc4ba0145"
      },
      "period": {
        "start": "2026-10-19T08:30:00.000+00:00",
        "end": "2026-10-31T08:15:00.000+00:00"
      },
      "reasonCode": [ {
        "coding": [ {
          "system": "http://snomed.info/sct",
          "code": "14047009"
        } ]
      }, {
        "coding": [ {
          "system": "http://snomed.info/sct",
          "code": "64859006"
        } ]
      } ]
    },
    "request": {
      "method": "PUT",
      "url": "Encounter/e67b107c-4d28-408d-a428-a21629ef94f9"
    }
  }, {
    "fullUrl": "https://madie.cms.gov/Encounter/d7921f62-50c4-41c6-8188-4e097e564682",
    "resource": {
      "resourceType": "Encounter",
      "id": "d7921f62-50c4-41c6-8188-4e097e564682",
      "meta": {
        "profile": [ "http://hl7.org/fhir/us/qicore/StructureDefinition/qicore-encounter" ]
      },
      "status": "finished",
      "class": {
        "system": "http://terminology.hl7.org/CodeSystem/v3-ActCode",
        "code": "EMER",
        "display": "emergency encounter"
      },
      "type": [ {
        "coding": [ {
          "system": "http://snomed.info/sct",
          "code": "4525004"
        } ]
      } ],
      "subject": {
        "reference": "Patient/56d5fe48-53b2-4599-870c-58bfc4ba0145"
      },
      "period": {
        "start": "2026-10-18T09:15:00.000+00:00",
        "end": "2026-10-19T08:15:00.000+00:00"
      }
    },
    "request": {
      "method": "PUT",
      "url": "Encounter/d7921f62-50c4-41c6-8188-4e097e564682"
    }
  }, {
    "fullUrl": "https://madie.cms.gov/Patient/56d5fe48-53b2-4599-870c-58bfc4ba0145",
    "resource": {
      "resourceType": "Patient",
      "id": "56d5fe48-53b2-4599-870c-58bfc4ba0145",
      "meta": {
        "profile": [ "http://hl7.org/fhir/us/qicore/StructureDefinition/qicore-patient" ]
      },
      "extension": [ {
        "url": "http://hl7.org/fhir/us/core/StructureDefinition/us-core-race",
        "extension": [ {
          "url": "ombCategory",
          "valueCoding": {
            "system": "urn:oid:2.16.840.1.113883.6.238",
            "code": "2106-3",
            "display": "White"
          }
        }, {
          "url": "text",
          "valueString": "White"
        } ]
      }, {
        "url": "http://hl7.org/fhir/us/core/StructureDefinition/us-core-ethnicity",
        "extension": [ {
          "url": "ombCategory",
          "valueCoding": {
            "system": "urn:oid:2.16.840.1.113883.6.238",
            "code": "2135-2",
            "display": "Hispanic or Latino"
          }
        }, {
          "url": "text",
          "valueString": "Hispanic or Latino"
        } ]
      }, {
        "url": "http://hl7.org/fhir/us/core/StructureDefinition/us-core-sex",
        "valueCode": "248153007"
      } ],
      "identifier": [ {
        "system": "http://hospital.smarthealthit.org",
        "value": "999999999"
      } ],
      "name": [ {
        "family": "Example",
        "given": [ "Patient" ]
      } ],
      "gender": "female",
      "birthDate": "1956-01-01"
    },
    "request": {
      "method": "PUT",
      "url": "Patient/56d5fe48-53b2-4599-870c-58bfc4ba0145"
    }
  }, {
    "fullUrl": "https://madie.cms.gov/Claim/abc7891d-06bb-48ea-bb69-adc5ebc45f5f",
    "resource": {
      "resourceType": "Claim",
      "id": "abc7891d-06bb-48ea-bb69-adc5ebc45f5f",
      "meta": {
        "profile": [ "http://hl7.org/fhir/us/qicore/StructureDefinition/qicore-claim" ]
      },
      "status": "active",
      "type": {
        "coding": [ {
          "system": "http://terminology.hl7.org/CodeSystem/claim-type",
          "code": "institutional",
          "display": "Institutional"
        } ]
      },
      "use": "claim",
      "patient": {
        "reference": "Patient/56d5fe48-53b2-4599-870c-58bfc4ba0145"
      },
      "created": "2026-10-22",
      "provider": {
        "reference": "Practitioner/practitioner-1"
      },
      "priority": {
        "coding": [ {
          "system": "http://terminology.hl7.org/CodeSystem/processpriority",
          "code": "normal"
        } ]
      },
      "diagnosis": [ {
        "sequence": 1,
        "diagnosisCodeableConcept": {
          "coding": [ {
            "system": "http://snomed.info/sct",
            "code": "14047009"
          } ]
        }
      } ],
      "insurance": [ {
        "sequence": 1,
        "focal": true,
        "coverage": {
          "reference": "Coverage/coverage-1"
        }
      } ],
      "item": [ {
        "sequence": 1,
        "diagnosisSequence": [ 1, 2 ],
        "productOrService": {
          "coding": [ {
            "system": "http://terminology.hl7.org/CodeSystem/ex-USCLS",
            "code": "1101"
          } ]
        },
        "encounter": [ {
          "reference": "Encounter/e67b107c-4d28-408d-a428-a21629ef94f9"
        } ]
      } ]
    },
    "request": {
      "method": "PUT",
      "url": "Claim/abc7891d-06bb-48ea-bb69-adc5ebc45f5f"
    }
  }, {
    "fullUrl": "https://madie.cms.gov/Claim/f581781c-022f-4726-a627-8f5c07adb467",
    "resource": {
      "resourceType": "Claim",
      "id": "f581781c-022f-4726-a627-8f5c07adb467",
      "meta": {
        "profile": [ "http://hl7.org/fhir/us/qicore/StructureDefinition/qicore-claim" ]
      },
      "status": "active",
      "type": {
        "coding": [ {
          "system": "http://terminology.hl7.org/CodeSystem/claim-type",
          "code": "institutional",
          "display": "Institutional"
        } ]
      },
      "use": "claim",
      "patient": {
        "reference": "Patient/56d5fe48-53b2-4599-870c-58bfc4ba0145"
      },
      "created": "2026-11-01",
      "provider": {
        "reference": "Practitioner/practitioner-1"
      },
      "priority": {
        "coding": [ {
          "system": "http://terminology.hl7.org/CodeSystem/processpriority",
          "code": "normal"
        } ]
      },
      "diagnosis": [ {
        "sequence": 1,
        "diagnosisCodeableConcept": {
          "coding": [ {
            "system": "http://hl7.org/fhir/sid/icd-10-cm",
            "code": "M80.00XA",
            "display": "Age-related osteoporosis with current pathological fracture, unspecified site, initial encounter for fracture"
          } ]
        }
      } ],
      "insurance": [ {
        "sequence": 1,
        "focal": true,
        "coverage": {
          "reference": "Coverage/coverage-1"
        }
      } ],
      "item": [ {
        "sequence": 1,
        "diagnosisSequence": [ 1, 2 ],
        "productOrService": {
          "coding": [ {
            "system": "http://terminology.hl7.org/CodeSystem/ex-USCLS",
            "code": "1101"
          } ]
        },
        "encounter": [ {
          "reference": "Encounter/e67b107c-4d28-408d-a428-a21629ef94f9"
        } ]
      } ]
    },
    "request": {
      "method": "PUT",
      "url": "Claim/f581781c-022f-4726-a627-8f5c07adb467"
    }
  }, {
    "fullUrl": "https://madie.cms.gov/MedicationRequest/4822e1da-031b-420f-b64b-bfc8615bc830",
    "resource": {
      "resourceType": "MedicationRequest",
      "id": "4822e1da-031b-420f-b64b-bfc8615bc830",
      "meta": {
        "profile": [ "http://hl7.org/fhir/us/qicore/StructureDefinition/qicore-medicationrequest" ]
      },
      "status": "active",
      "intent": "order",
      "category": [ {
        "coding": [ {
          "system": "http://terminology.hl7.org/CodeSystem/medicationrequest-category",
          "code": "community",
          "display": "Community"
        } ]
      } ],
      "medicationCodeableConcept": {
        "coding": [ {
          "system": "http://www.nlm.nih.gov/research/umls/rxnorm",
          "code": "1000001"
        } ]
      },
      "subject": {
        "reference": "Patient/56d5fe48-53b2-4599-870c-58bfc4ba0145"
      },
      "authoredOn": "2026-10-15",
      "requester": {
        "reference": "Practitioner/practitioner-1"
      },
      "dispenseRequest": {
        "quantity": {
          "value": 14,
          "unit": "tablet",
          "system": "http://unitsofmeasure.org",
          "code": "{tablet}"
        },
        "expectedSupplyDuration": {
          "value": 14,
          "unit": "days",
          "system": "http://unitsofmeasure.org",
          "code": "d"
        }
      }
    },
    "request": {
      "method": "PUT",
      "url": "MedicationRequest/4822e1da-031b-420f-b64b-bfc8615bc830"
    }
  }, {
    "fullUrl": "https://madie.cms.gov/Practitioner/38927bc8-ebce-4780-b51b-ae42cc64c015",
    "resource": {
      "resourceType": "Practitioner",
      "id": "38927bc8-ebce-4780-b51b-ae42cc64c015",
      "identifier": [ {
        "system": "http://www.cms.gov/identifiers/pracitioners",
        "value": "P12345"
      } ],
      "name": [ {
        "use": "official",
        "family": "Smith",
        "given": [ "John" ]
      } ],
      "qualification": [ {
        "identifier": [ {
          "system": "http://hl7.org/fhir/sid/us-npi",
          "value": "1234567890"
        } ],
        "code": {
          "coding": [ {
            "system": "http://terminology.hl7.org/CodeSystem/v2-0203",
            "code": "MD",
            "display": "Medical License number"
          } ]
        }
      } ]
    },
    "request": {
      "method": "PUT",
      "url": "Practitioner/38927bc8-ebce-4780-b51b-ae42cc64c015"
    }
  }, {
    "fullUrl": "https://madie.cms.gov/Coverage/e97a0460-e3a3-43cb-b9fb-fae06d4223ee",
    "resource": {
      "resourceType": "Coverage",
      "id": "e97a0460-e3a3-43cb-b9fb-fae06d4223ee",
      "status": "active",
      "beneficiary": {
        "reference": "Patient/56d5fe48-53b2-4599-870c-58bfc4ba0145"
      },
      "payor": [ {
        "reference": "Organization/81f0eaf8-bdb5-4dcc-b764-2a2f341bac53"
      } ]
    },
    "request": {
      "method": "PUT",
      "url": "Coverage/e97a0460-e3a3-43cb-b9fb-fae06d4223ee"
    }
  }, {
    "fullUrl": "https://madie.cms.gov/Organization/81f0eaf8-bdb5-4dcc-b764-2a2f341bac53",
    "resource": {
      "resourceType": "Organization",
      "id": "81f0eaf8-bdb5-4dcc-b764-2a2f341bac53",
      "identifier": [ {
        "system": "http://cms.gov/insurance-ids",
        "value": "AET12345"
      } ],
      "type": [ {
        "coding": [ {
          "system": "http://terminology.hl7.org/CodeSystem/organization-type",
          "code": "prov",
          "display": "Healthcare Provider"
        } ]
      } ],
      "name": "Aetna Insurance",
      "telecom": [ {
        "system": "phone",
        "value": "+1-800-123-4567"
      } ],
      "address": [ {
        "line": [ "123 Main Street" ],
        "city": "Cityville",
        "state": "CA",
        "postalCode": "12345",
        "country": "USA"
      } ]
    },
    "request": {
      "method": "PUT",
      "url": "Organization/81f0eaf8-bdb5-4dcc-b764-2a2f341bac53"
    }
  }, {
    "fullUrl": "https://madie.cms.gov/MeasureReport/5ae2361d-2cf7-4b78-b5c9-74fecfb35479",
    "resource": {
      "resourceType": "MeasureReport",
      "id": "5ae2361d-2cf7-4b78-b5c9-74fecfb35479",
      "meta": {
        "profile": [ "http://hl7.org/fhir/us/cqfmeasures/StructureDefinition/test-case-cqfm" ]
      },
      "contained": [ {
        "resourceType": "Parameters",
        "id": "fa121e35-75ad-48b0-80b6-4b15e99d1a9a-parameters",
        "parameter": [ {
          "name": "subject",
          "valueString": "56d5fe48-53b2-4599-870c-58bfc4ba0145"
        } ]
      } ],
      "extension": [ {
        "url": "http://hl7.org/fhir/StructureDefinition/cqf-inputParameters",
        "valueReference": {
          "reference": "#fa121e35-75ad-48b0-80b6-4b15e99d1a9a-parameters"
        }
      }, {
        "url": "http://hl7.org/fhir/us/cqfmeasures/StructureDefinition/cqfm-testCaseDescription",
        "valueMarkdown": "RVariable Encounter With Antihypertensive Order At Admission"
      } ],
      "modifierExtension": [ {
        "url": "http://hl7.org/fhir/us/cqfmeasures/StructureDefinition/cqfm-isTestCase",
        "valueBoolean": true
      } ],
      "status": "complete",
      "type": "individual",
      "measure": "https://madie.cms.gov/Measure/CMS1017FHIRHHFI",
      "period": {
        "start": "2026-01-01",
        "end": "2026-12-31"
      },
      "group": [ {
        "id": "Group_1",
        "population": [ {
          "id": "InitialPopulation_1",
          "code": {
            "coding": [ {
              "system": "http://terminology.hl7.org/CodeSystem/measure-population",
              "code": "initial-population",
              "display": "Initial Population"
            } ]
          },
          "count": 1
        }, {
          "id": "Denominator_1",
          "code": {
            "coding": [ {
              "system": "http://terminology.hl7.org/CodeSystem/measure-population",
              "code": "denominator",
              "display": "Denominator"
            } ]
          },
          "count": 1
        }, {
          "id": "DenominatorExclusion_1",
          "code": {
            "coding": [ {
              "system": "http://terminology.hl7.org/CodeSystem/measure-population",
              "code": "denominator-exclusion",
              "display": "Denominator Exclusion"
            } ]
          },
          "count": 0
        }, {
          "id": "Numerator_1",
          "code": {
            "coding": [ {
              "system": "http://terminology.hl7.org/CodeSystem/measure-population",
              "code": "numerator",
              "display": "Numerator"
            } ]
          },
          "count": 1
        }, {
          "id": "NumeratorExclusion_1",
          "code": {
            "coding": [ {
              "system": "http://terminology.hl7.org/CodeSystem/measure-population",
              "code": "numerator-exclusion",
              "display": "Numerator Exclusion"
            } ]
          },
          "count": 0
        }, {
          "id": "MeasureObservation_1_1_1",
          "code": {
            "coding": [ {
              "system": "http://terminology.hl7.org/CodeSystem/measure-population",
              "code": "measure-observation",
              "display": "Measure Observation"
            } ]
          },
          "count": 12
        }, {
          "id": "MeasureObservation_1_2_1",
          "code": {
            "coding": [ {
              "system": "http://terminology.hl7.org/CodeSystem/measure-population",
              "code": "measure-observation",
              "display": "Measure Observation"
            } ]
          },
          "count": 1
        } ],
        "measureScore": {
          "value": 0.0
        }
      } ],
      "evaluatedResource": [ {
        "reference": "Encounter/e67b107c-4d28-408d-a428-a21629ef94f9"
      }, {
        "reference": "Encounter/d7921f62-50c4-41c6-8188-4e097e564682"
      }, {
        "reference": "Patient/56d5fe48-53b2-4599-870c-58bfc4ba0145"
      }, {
        "reference": "Claim/abc7891d-06bb-48ea-bb69-adc5ebc45f5f"
      }, {
        "reference": "Claim/f581781c-022f-4726-a627-8f5c07adb467"
      }, {
        "reference": "MedicationRequest/4822e1da-031b-420f-b64b-bfc8615bc830"
      }, {
        "reference": "Practitioner/38927bc8-ebce-4780-b51b-ae42cc64c015"
      }, {
        "reference": "Coverage/e97a0460-e3a3-43cb-b9fb-fae06d4223ee"
      }, {
        "reference": "Organization/81f0eaf8-bdb5-4dcc-b764-2a2f341bac53"
      } ]
    },
    "request": {
      "method": "PUT",
      "url": "MeasureReport/5ae2361d-2cf7-4b78-b5c9-74fecfb35479"
    }
  } ]
}