{
  "resourceType": "Bundle",
  "id": "DENOMPass-RVOpioidActive",
  "type": "transaction",
  "entry": [ {
    "fullUrl": "https://madie.cms.gov/Encounter/925b2075-5884-4049-9249-2475fd1d8455",
    "resource": {
      "resourceType": "Encounter",
      "id": "925b2075-5884-4049-9249-2475fd1d8455",
      "meta": {
        "profile": [ "http://hl7.org/fhir/us/qicore/StructureDefinition/qicore-encounter" ]
      },
      "status": "finished",
      "class": {
        "system": "http://terminology.hl7.org/CodeSystem/v3-ActCode",
        "code": "IMP",
        "display": "inpatient encounter"
      },
      "type": [ {
        "coding": [ {
          "system": "http://snomed.info/sct",
          "code": "183452005"
        } ]
      } ],
      "subject": {
        "reference": "Patient/0653f9dc-8461-484e-a901-f17709f04776"
      },
      "period": {
        "start": "2026-11-12T08:00:00.000+00:00",
        "end": "2026-11-18T08:01:00.000+00:00"
      },
      "diagnosis": [ {
        "extension": [ {
          "url": "http://hl7.org/fhir/us/qicore/StructureDefinition/qicore-encounter-diagnosisPresentOnAdmission",
          "valueCodeableConcept": {
            "coding": [ {
              "system": "https://www.cms.gov/Medicare/Medicare-Fee-for-Service-Payment/HospitalAcqCond/Coding",
              "code": "Y"
            } ]
          }
        } ],
        "condition": {
          "reference": "Condition/4914802a-e2ba-433b-837f-6802aa426425"
        }
      }, {
        "extension": [ {
          "url": "http://hl7.org/fhir/us/qicore/StructureDefinition/qicore-encounter-diagnosisPresentOnAdmission",
          "valueCodeableConcept": {
            "coding": [ {
              "system": "https://www.cms.gov/Medicare/Medicare-Fee-for-Service-Payment/HospitalAcqCond/Coding",
              "code": "Y"
            } ]
          }
        } ],
        "condition": {
          "reference": "Condition/b5f8af7f-889c-47d9-bdf7-d25a9e7d08d4"
        }
      } ]
    },
    "request": {
      "method": "PUT",
      "url": "Encounter/925b2075-5884-4049-9249-2475fd1d8455"
    }
  }, {
    "fullUrl": "https://madie.cms.gov/Condition/b5f8af7f-889c-47d9-bdf7-d25a9e7d08d4",
    "resource": {
      "resourceType": "Condition",
      "id": "b5f8af7f-889c-47d9-bdf7-d25a9e7d08d4",
      "meta": {
        "profile": [ "http://hl7.org/fhir/us/qicore/StructureDefinition/qicore-condition" ]
      },
      "clinicalStatus": {
        "coding": [ {
          "system": "http://terminology.hl7.org/CodeSystem/condition-clinical",
          "code": "active"
        } ]
      },
      "verificationStatus": {
        "coding": [ {
          "system": "http://terminology.hl7.org/CodeSystem/condition-ver-status",
          "code": "confirmed"
        } ]
      },
      "category": [ {
        "coding": [ {
          "system": "http://terminology.hl7.org/CodeSystem/condition-category",
          "code": "encounter-diagnosis",
          "display": "Encounter Diagnosis"
        } ]
      } ],
      "code": {
        "coding": [ {
          "system": "http://hl7.org/fhir/sid/icd-10-cm",
          "code": "F06.34"
        } ]
      },
      "subject": {
        "reference": "Patient/0653f9dc-8461-484e-a901-f17709f04776"
      },
      "encounter": {
        "reference": "Encounter/925b2075-5884-4049-9249-2475fd1d8455"
      }
    },
    "request": {
      "method": "PUT",
      "url": "Condition/b5f8af7f-889c-47d9-bdf7-d25a9e7d08d4"
    }
  }, {
    "fullUrl": "https://madie.cms.gov/Condition/4914802a-e2ba-433b-837f-6802aa426425",
    "resource": {
      "resourceType": "Condition",
      "id": "4914802a-e2ba-433b-837f-6802aa426425",
      "meta": {
        "profile": [ "http://hl7.org/fhir/us/qicore/StructureDefinition/qicore-condition" ]
      },
      "clinicalStatus": {
        "coding": [ {
          "system": "http://terminology.hl7.org/CodeSystem/condition-clinical",
          "code": "active"
        } ]
      },
      "verificationStatus": {
        "coding": [ {
          "system": "http://terminology.hl7.org/CodeSystem/condition-ver-status",
          "code": "confirmed"
        } ]
      },
      "category": [ {
        "coding": [ {
          "system": "http://terminology.hl7.org/CodeSystem/condition-category",
          "code": "encounter-diagnosis",
          "display": "Encounter Diagnosis"
        } ]
      } ],
      "code": {
        "coding": [ {
          "system": "http://hl7.org/fhir/sid/icd-10-cm",
          "code": "D61.09"
        } ]
      },
      "subject": {
        "reference": "Patient/0653f9dc-8461-484e-a901-f17709f04776"
      },
      "encounter": {
        "reference": "Encounter/925b2075-5884-4049-9249-2475fd1d8455"
      }
    },
    "request": {
      "method": "PUT",
      "url": "Condition/4914802a-e2ba-433b-837f-6802aa426425"
    }
  }, {
    "fullUrl": "https://madie.cms.gov/Patient/0653f9dc-8461-484e-a901-f17709f04776",
    "resource": {
      "resourceType": "Patient",
      "id": "0653f9dc-8461-484e-a901-f17709f04776",
      "meta": {
        "profile": [ "http://hl7.org/fhir/us/qicore/StructureDefinition/qicore-patient" ]
      },
      "extension": [ {
        "url": "http://hl7.org/fhir/us/core/StructureDefinition/us-core-race",
        "extension": [ {
          "url": "ombCategory",
          "valueCoding": {
            "system": "urn:oid:2.16.840.1.113883.6.238",
            "code": "2054-5",
            "display": "Black or African American",
            "userSelected": true
          }
        }, {
          "url": "text",
          "valueString": "Black or African American"
        } ]
      }, {
        "url": "http://hl7.org/fhir/us/core/StructureDefinition/us-core-ethnicity",
        "extension": [ {
          "url": "ombCategory",
          "valueCoding": {
            "system": "urn:oid:2.16.840.1.113883.6.238",
            "code": "2186-5",
            "display": "Not Hispanic or Latino",
            "userSelected": true
          }
        }, {
          "url": "text",
          "valueString": "Not Hispanic or Latino"
        } ]
      } ],
      "identifier": [ {
        "type": {
          "coding": [ {
            "system": "http://terminology.hl7.org/CodeSystem/v2-0203",
            "code": "MR"
          } ]
        },
        "system": "https://bonnie-fhir.healthit.gov/",
        "value": "61152a3b98086b7a79cbd7c1"
      } ],
      "active": true,
      "name": [ {
        "use": "usual",
        "family": "DENEXPass",
        "given": [ "RVOpioidActive" ]
      } ],
      "gender": "male",
      "birthDate": "1964-12-11"
    },
    "request": {
      "method": "PUT",
      "url": "Patient/0653f9dc-8461-484e-a901-f17709f04776"
    }
  }, {
    "fullUrl": "https://madie.cms.gov/MedicationRequest/0de813ed-974a-4bd7-a483-cd5d2cbefe9c",
    "resource": {
      "resourceType": "MedicationRequest",
      "id": "0de813ed-974a-4bd7-a483-cd5d2cbefe9c",
      "meta": {
        "profile": [ "http://hl7.org/fhir/us/qicore/StructureDefinition/qicore-medicationrequest" ]
      },
      "status": "active",
      "intent": "order",
      "medicationCodeableConcept": {
        "coding": [ {
          "system": "http://www.nlm.nih.gov/research/umls/rxnorm",
          "code": "1010600"
        } ]
      },
      "subject": {
        "reference": "Patient/0653f9dc-8461-484e-a901-f17709f04776"
      },
      "authoredOn": "2026-11-12T08:00:00.000+00:00",
      "requester": {
        "reference": "Patient/0653f9dc-8461-484e-a901-f17709f04776"
      }
    },
    "request": {
      "method": "PUT",
      "url": "MedicationRequest/0de813ed-974a-4bd7-a483-cd5d2cbefe9c"
    }
  }, {
    "fullUrl": "https://madie.cms.gov/MeasureReport/a9ce1191-d074-4d05-89bb-bbc6505514d0",
    "resource": {
      "resourceType": "MeasureReport",
      "id": "a9ce1191-d074-4d05-89bb-bbc6505514d0",
      "meta": {
        "profile": [ "http://hl7.org/fhir/us/cqfmeasures/StructureDefinition/test-case-cqfm" ]
      },
      "contained": [ {
        "resourceType": "Parameters",
        "id": "1453a7c0-c5cc-4a18-b4c4-0af0f6810861-parameters",
        "parameter": [ {
          "name": "subject",
          "valueString": "0653f9dc-8461-484e-a901-f17709f04776"
        } ]
      } ],
      "extension": [ {
        "url": "http://hl7.org/fhir/StructureDefinition/cqf-inputParameters",
        "valueReference": {
          "reference": "#1453a7c0-c5cc-4a18-b4c4-0af0f6810861-parameters"
        }
      }, {
        "url": "http://hl7.org/fhir/us/cqfmeasures/StructureDefinition/cqfm-testCaseDescription",
        "valueMarkdown": "Encounter with Opioid active on admission (relevant datetime is same as start of encounter relevant period. Meets RV logic. "
      } ],
      "modifierExtension": [ {
        "url": "http://hl7.org/fhir/us/cqfmeasures/StructureDefinition/cqfm-isTestCase",
        "valueBoolean": true
      } ],
      "status": "complete",
      "type": "individual",
      "measure": "https://madie.cms.gov/Measure/CMS1017FHIRHHFI",
      "period": {
        "start": "2026-01-01",
        "end": "2026-12-31"
      },
      "group": [ {
        "id": "Group_1",
        "population": [ {
          "id": "InitialPopulation_1",
          "code": {
            "coding": [ {
              "system": "http://terminology.hl7.org/CodeSystem/measure-population",
              "code": "initial-population",
              "display": "Initial Population"
            } ]
          },
          "count": 1
        }, {
          "id": "Denominator_1",
          "code": {
            "coding": [ {
              "system": "http://terminology.hl7.org/CodeSystem/measure-population",
              "code": "denominator",
              "display": "Denominator"
            } ]
          },
          "count": 1
        }, {
          "id": "DenominatorExclusion_1",
          "code": {
            "coding": [ {
              "system": "http://terminology.hl7.org/CodeSystem/measure-population",
              "code": "denominator-exclusion",
              "display": "Denominator Exclusion"
            } ]
          },
          "count": 0
        }, {
          "id": "Numerator_1",
          "code": {
            "coding": [ {
              "system": "http://terminology.hl7.org/CodeSystem/measure-population",
              "code": "numerator",
              "display": "Numerator"
            } ]
          },
          "count": 0
        }, {
          "id": "NumeratorExclusion_1",
          "code": {
            "coding": [ {
              "system": "http://terminology.hl7.org/CodeSystem/measure-population",
              "code": "numerator-exclusion",
              "display": "Numerator Exclusion"
            } ]
          },
          "count": 0
        }, {
          "id": "MeasureObservation_1_1_1",
          "code": {
            "coding": [ {
              "system": "http://terminology.hl7.org/CodeSystem/measure-population",
              "code": "measure-observation",
              "display": "Measure Observation"
            } ]
          },
          "count": 6
        } ],
        "measureScore": {
          "value": 0.0
        }
      } ],
      "evaluatedResource": [ {
        "reference": "Encounter/925b2075-5884-4049-9249-2475fd1d8455"
      }, {
        "reference": "Condition/b5f8af7f-889c-47d9-bdf7-d25a9e7d08d4"
      }, {
        "reference": "Condition/4914802a-e2ba-433b-837f-6802aa426425"
      }, {
        "reference": "Patient/0653f9dc-8461-484e-a901-f17709f04776"
      }, {
        "reference": "MedicationRequest/0de813ed-974a-4bd7-a483-cd5d2cbefe9c"
      } ]
    },
    "request": {
      "method": "PUT",
      "url": "MeasureReport/a9ce1191-d074-4d05-89bb-bbc6505514d0"
    }
  } ]
}