{
  "resourceType": "Bundle",
  "id": "tests-b9a0c3ab-10ba-42b1-a1c0-104e1651896d-bundle",
  "type": "transaction",
  "entry": [ {
    "fullUrl": "https://madie.cms.gov/Procedure/e8e0860c-c01d-4b99-8428-6eadc5813540",
    "resource": {
      "resourceType": "Procedure",
      "id": "e8e0860c-c01d-4b99-8428-6eadc5813540",
      "meta": {
        "profile": [ "http://hl7.org/fhir/us/qicore/StructureDefinition/qicore-procedure" ]
      },
      "extension": [ {
        "url": "http://hl7.org/fhir/us/qicore/StructureDefinition/qicore-recorded",
        "valueDateTime": "2026-04-13T14:20:30.000+00:00"
      } ],
      "status": "completed",
      "code": {
        "coding": [ {
          "system": "http://snomed.info/sct",
          "code": "243141005",
          "display": "Mechanically assisted spontaneous ventilation"
        } ],
        "text": "Mechanically assisted spontaneous ventilation"
      },
      "subject": {
        "reference": "Patient/b9a0c3ab-10ba-42b1-a1c0-104e1651896d"
      },
      "performedPeriod": {
        "start": "2026-04-13T11:15:00.000+00:00",
        "end": "2026-04-13T14:16:00.000+00:00"
      }
    },
    "request": {
      "method": "PUT",
      "url": "Procedure/e8e0860c-c01d-4b99-8428-6eadc5813540"
    }
  }, {
    "fullUrl": "https://madie.cms.gov/Encounter/1130fa77-54ca-4801-aa89-d622eb342036",
    "resource": {
      "resourceType": "Encounter",
      "id": "1130fa77-54ca-4801-aa89-d622eb342036",
      "meta": {
        "profile": [ "http://hl7.org/fhir/us/qicore/StructureDefinition/qicore-encounter" ]
      },
      "status": "finished",
      "class": {
        "system": "http://terminology.hl7.org/CodeSystem/v3-ActCode",
        "code": "IMP",
        "display": "inpatient encounter"
      },
      "type": [ {
        "coding": [ {
          "system": "http://snomed.info/sct",
          "code": "112689000",
          "display": "Hospital admission, elective, with complete pre-admission work-up"
        } ],
        "text": "Hospital admission, elective, with complete pre-admission work-up"
      } ],
      "priority": {
        "coding": [ {
          "system": "http://snomed.info/sct",
          "code": "103390000"
        } ]
      },
      "subject": {
        "reference": "Patient/b9a0c3ab-10ba-42b1-a1c0-104e1651896d"
      },
      "period": {
        "start": "2026-04-10T08:00:00.000+00:00",
        "end": "2026-04-18T08:15:00.000+00:00"
      }
    },
    "request": {
      "method": "PUT",
      "url": "Encounter/1130fa77-54ca-4801-aa89-d622eb342036"
    }
  }, {
    "fullUrl": "https://madie.cms.gov/Patient/b9a0c3ab-10ba-42b1-a1c0-104e1651896d",
    "resource": {
      "resourceType": "Patient",
      "id": "b9a0c3ab-10ba-42b1-a1c0-104e1651896d",
      "meta": {
        "profile": [ "http://hl7.org/fhir/us/qicore/StructureDefinition/qicore-patient" ]
      },
      "extension": [ {
        "url": "http://hl7.org/fhir/us/core/StructureDefinition/us-core-race",
        "extension": [ {
          "url": "ombCategory",
          "valueCoding": {
            "system": "urn:oid:2.16.840.1.113883.6.238",
            "code": "2054-5",
            "display": "Black or African American",
            "userSelected": true
          }
        }, {
          "url": "text",
          "valueString": "Black or African American"
        } ]
      }, {
        "url": "http://hl7.org/fhir/us/core/StructureDefinition/us-core-ethnicity",
        "extension": [ {
          "url": "ombCategory",
          "valueCoding": {
            "system": "urn:oid:2.16.840.1.113883.6.238",
            "code": "2186-5",
            "display": "Not Hispanic or Latino",
            "userSelected": true
          }
        }, {
          "url": "text",
          "valueString": "Not Hispanic or Latino"
        } ]
      } ],
      "identifier": [ {
        "type": {
          "coding": [ {
            "system": "http://terminology.hl7.org/CodeSystem/v2-0203",
            "code": "MR"
          } ]
        },
        "system": "https://bonnie-fhir.healthit.gov/",
        "value": "61152a3b98086b7a79cbd7c1"
      } ],
      "active": true,
      "name": [ {
        "use": "usual",
        "family": "NUMER4Pass",
        "given": [ "Num2FailsNum4Pass" ]
      } ],
      "gender": "female",
      "birthDate": "1966-07-12"
    },
    "request": {
      "method": "PUT",
      "url": "Patient/b9a0c3ab-10ba-42b1-a1c0-104e1651896d"
    }
  }, {
    "fullUrl": "https://madie.cms.gov/Procedure/90ee8b15-8f9c-499f-a86a-c78ac0850074",
    "resource": {
      "resourceType": "Procedure",
      "id": "90ee8b15-8f9c-499f-a86a-c78ac0850074",
      "meta": {
        "profile": [ "http://hl7.org/fhir/us/qicore/StructureDefinition/qicore-procedure" ]
      },
      "extension": [ {
        "url": "http://hl7.org/fhir/us/qicore/StructureDefinition/qicore-recorded",
        "valueDateTime": "2026-04-11T08:10:00.000+00:00"
      } ],
      "status": "completed",
      "category": {
        "coding": [ {
          "system": "http://snomed.info/sct",
          "code": "18286008",
          "display": "General or neuraxial anesthesia"
        } ]
      },
      "code": {
        "coding": [ {
          "system": "http://snomed.info/sct",
          "code": "112943005",
          "display": "Epidural injection of anesthetic substance, diagnostic, caudal, continuous"
        } ]
      },
      "subject": {
        "reference": "Patient/b9a0c3ab-10ba-42b1-a1c0-104e1651896d"
      },
      "performedPeriod": {
        "start": "2026-04-11T08:00:00.000+00:00",
        "end": "2026-04-11T10:15:00.000+00:00"
      }
    },
    "request": {
      "method": "PUT",
      "url": "Procedure/90ee8b15-8f9c-499f-a86a-c78ac0850074"
    }
  }, {
    "fullUrl": "https://madie.cms.gov/Procedure/eaf0df5a-bfa5-4198-ad22-a575e32ef1f9",
    "resource": {
      "resourceType": "Procedure",
      "id": "eaf0df5a-bfa5-4198-ad22-a575e32ef1f9",
      "meta": {
        "profile": [ "http://hl7.org/fhir/us/qicore/StructureDefinition/qicore-procedure" ]
      },
      "extension": [ {
        "url": "http://hl7.org/fhir/us/qicore/StructureDefinition/qicore-recorded",
        "valueDateTime": "2026-04-11T09:20:00.000+00:00"
      } ],
      "status": "completed",
      "category": {
        "coding": [ {
          "system": "http://snomed.info/sct",
          "code": "18286008",
          "display": "General or neuraxial anesthesia"
        } ]
      },
      "code": {
        "coding": [ {
          "system": "http://snomed.info/sct",
          "code": "112943005",
          "display": "Epidural injection of anesthetic substance, diagnostic, caudal, continuous"
        } ]
      },
      "subject": {
        "reference": "Patient/b9a0c3ab-10ba-42b1-a1c0-104e1651896d"
      },
      "performedPeriod": {
        "start": "2026-04-14T08:00:00.000+00:00",
        "end": "2026-04-14T09:15:00.000+00:00"
      }
    },
    "request": {
      "method": "PUT",
      "url": "Procedure/eaf0df5a-bfa5-4198-ad22-a575e32ef1f9"
    }
  }, {
    "fullUrl": "https://madie.cms.gov/MeasureReport/87276bf6-f6c4-4ea6-abf2-8acbec283731",
    "resource": {
      "resourceType": "MeasureReport",
      "id": "87276bf6-f6c4-4ea6-abf2-8acbec283731",
      "meta": {
        "profile": [ "http://hl7.org/fhir/us/cqfmeasures/StructureDefinition/test-case-cqfm" ]
      },
      "contained": [ {
        "resourceType": "Parameters",
        "id": "b75ebf60-7ee4-4e21-bb32-808c168806d7-parameters",
        "parameter": [ {
          "name": "subject",
          "valueString": "b9a0c3ab-10ba-42b1-a1c0-104e1651896d"
        } ]
      } ],
      "extension": [ {
        "url": "http://hl7.org/fhir/StructureDefinition/cqf-inputParameters",
        "valueReference": {
          "reference": "#b75ebf60-7ee4-4e21-bb32-808c168806d7-parameters"
        }
      }, {
        "url": "http://hl7.org/fhir/us/cqfmeasures/StructureDefinition/cqfm-testCaseDescription",
        "valueMarkdown": "Elective hospitalization with two procs, MV after both but no preceding O2 so does not meet Num2. MV starts between 48-72 hrs after first proc so meets Num4. O2 therapy but it is after MV, not before."
      } ],
      "modifierExtension": [ {
        "url": "http://hl7.org/fhir/us/cqfmeasures/StructureDefinition/cqfm-isTestCase",
        "valueBoolean": true
      } ],
      "status": "complete",
      "type": "individual",
      "measure": "https://madie.cms.gov/Measure/CMS1218FHIRHHRF",
      "period": {
        "start": "2026-01-01",
        "end": "2026-12-31"
      },
      "group": [ {
        "id": "Group_1",
        "population": [ {
          "id": "InitialPopulation_1",
          "code": {
            "coding": [ {
              "system": "http://terminology.hl7.org/CodeSystem/measure-population",
              "code": "initial-population",
              "display": "Initial Population"
            } ]
          },
          "count": 1
        }, {
          "id": "Denominator_1",
          "code": {
            "coding": [ {
              "system": "http://terminology.hl7.org/CodeSystem/measure-population",
              "code": "denominator",
              "display": "Denominator"
            } ]
          },
          "count": 1
        }, {
          "id": "DenominatorExclusion_1",
          "code": {
            "coding": [ {
              "system": "http://terminology.hl7.org/CodeSystem/measure-population",
              "code": "denominator-exclusion",
              "display": "Denominator Exclusion"
            } ]
          },
          "count": 0
        }, {
          "id": "Numerator_1",
          "code": {
            "coding": [ {
              "system": "http://terminology.hl7.org/CodeSystem/measure-population",
              "code": "numerator",
              "display": "Numerator"
            } ]
          },
          "count": 1
        } ],
        "measureScore": {
          "value": 0.0
        }
      } ],
      "evaluatedResource": [ {
        "reference": "Procedure/e8e0860c-c01d-4b99-8428-6eadc5813540"
      }, {
        "reference": "Encounter/1130fa77-54ca-4801-aa89-d622eb342036"
      }, {
        "reference": "Patient/b9a0c3ab-10ba-42b1-a1c0-104e1651896d"
      }, {
        "reference": "Procedure/90ee8b15-8f9c-499f-a86a-c78ac0850074"
      }, {
        "reference": "Procedure/eaf0df5a-bfa5-4198-ad22-a575e32ef1f9"
      } ]
    },
    "request": {
      "method": "PUT",
      "url": "MeasureReport/87276bf6-f6c4-4ea6-abf2-8acbec283731"
    }
  } ]
}