{
  "resourceType": "Bundle",
  "id": "tests-0ef36c93-9547-4238-a59e-3f7c2fa37293-bundle",
  "type": "transaction",
  "entry": [ {
    "fullUrl": "https://madie.cms.gov/Patient/0ef36c93-9547-4238-a59e-3f7c2fa37293",
    "resource": {
      "resourceType": "Patient",
      "id": "0ef36c93-9547-4238-a59e-3f7c2fa37293",
      "meta": {
        "profile": [ "http://hl7.org/fhir/us/qicore/StructureDefinition/qicore-patient" ]
      },
      "extension": [ {
        "url": "http://hl7.org/fhir/us/core/StructureDefinition/us-core-race",
        "extension": [ {
          "url": "ombCategory",
          "valueCoding": {
            "system": "urn:oid:2.16.840.1.113883.6.238",
            "code": "2054-5",
            "display": "Black or African American",
            "userSelected": true
          }
        }, {
          "url": "text",
          "valueString": "Black or African American"
        } ]
      }, {
        "url": "http://hl7.org/fhir/us/core/StructureDefinition/us-core-ethnicity",
        "extension": [ {
          "url": "ombCategory",
          "valueCoding": {
            "system": "urn:oid:2.16.840.1.113883.6.238",
            "code": "2186-5",
            "display": "Not Hispanic or Latino",
            "userSelected": true
          }
        }, {
          "url": "text",
          "valueString": "Not Hispanic or Latino"
        } ]
      } ],
      "identifier": [ {
        "type": {
          "coding": [ {
            "system": "http://terminology.hl7.org/CodeSystem/v2-0203",
            "code": "MR"
          } ]
        },
        "system": "https://bonnie-fhir.healthit.gov/",
        "value": "61152a3b98086b7a79cbd7c1"
      } ],
      "active": true,
      "name": [ {
        "use": "usual",
        "family": "NUMERPass",
        "given": [ "Num3EncWithExtubationGT48Hrs" ]
      } ],
      "gender": "female",
      "birthDate": "1966-07-12"
    },
    "request": {
      "method": "PUT",
      "url": "Patient/0ef36c93-9547-4238-a59e-3f7c2fa37293"
    }
  }, {
    "fullUrl": "https://madie.cms.gov/Encounter/7171809e-defe-4708-823f-459bb419ea09",
    "resource": {
      "resourceType": "Encounter",
      "id": "7171809e-defe-4708-823f-459bb419ea09",
      "meta": {
        "profile": [ "http://hl7.org/fhir/us/qicore/StructureDefinition/qicore-encounter" ]
      },
      "status": "finished",
      "class": {
        "system": "http://terminology.hl7.org/CodeSystem/v3-ActCode",
        "code": "IMP",
        "display": "inpatient encounter"
      },
      "type": [ {
        "coding": [ {
          "system": "http://snomed.info/sct",
          "code": "112689000",
          "display": "Hospital admission, elective, with complete pre-admission work-up"
        } ],
        "text": "Hospital admission, elective, with complete pre-admission work-up"
      } ],
      "priority": {
        "coding": [ {
          "system": "http://snomed.info/sct",
          "code": "103390000"
        } ]
      },
      "subject": {
        "reference": "Patient/0ef36c93-9547-4238-a59e-3f7c2fa37293"
      },
      "period": {
        "start": "2026-04-10T08:00:00.000+00:00",
        "end": "2026-04-14T08:15:00.000+00:00"
      }
    },
    "request": {
      "method": "PUT",
      "url": "Encounter/7171809e-defe-4708-823f-459bb419ea09"
    }
  }, {
    "fullUrl": "https://madie.cms.gov/Procedure/f94dffda-23d5-4ca6-bec1-e36f13b6ff51",
    "resource": {
      "resourceType": "Procedure",
      "id": "f94dffda-23d5-4ca6-bec1-e36f13b6ff51",
      "meta": {
        "profile": [ "http://hl7.org/fhir/us/qicore/StructureDefinition/qicore-procedure" ]
      },
      "extension": [ {
        "url": "http://hl7.org/fhir/us/qicore/StructureDefinition/qicore-recorded",
        "valueDateTime": "2026-04-11T10:20:00.000+00:00"
      } ],
      "status": "completed",
      "category": {
        "coding": [ {
          "system": "http://snomed.info/sct",
          "code": "18286008",
          "display": "General or neuraxial anesthesia"
        } ]
      },
      "code": {
        "coding": [ {
          "system": "http://snomed.info/sct",
          "code": "112943005",
          "display": "Epidural injection of anesthetic substance,  diagnostic, caudal, continuous"
        } ]
      },
      "subject": {
        "reference": "Patient/0ef36c93-9547-4238-a59e-3f7c2fa37293"
      },
      "performedPeriod": {
        "start": "2026-04-11T08:00:00.000+00:00",
        "end": "2026-04-11T10:15:00.000+00:00"
      }
    },
    "request": {
      "method": "PUT",
      "url": "Procedure/f94dffda-23d5-4ca6-bec1-e36f13b6ff51"
    }
  }, {
    "fullUrl": "https://madie.cms.gov/Procedure/3eb61744-4920-42e1-85c4-cc12845ac201",
    "resource": {
      "resourceType": "Procedure",
      "id": "3eb61744-4920-42e1-85c4-cc12845ac201",
      "meta": {
        "profile": [ "http://hl7.org/fhir/us/qicore/StructureDefinition/qicore-procedure" ]
      },
      "extension": [ {
        "url": "http://hl7.org/fhir/us/qicore/StructureDefinition/qicore-recorded",
        "valueDateTime": "2026-04-21T12:00:00.000+00:00"
      } ],
      "status": "completed",
      "code": {
        "coding": [ {
          "system": "http://snomed.info/sct",
          "code": "271280005",
          "display": "Removal of endotracheal tube (procedure)"
        } ],
        "text": "Removal of endotracheal tube (procedure)"
      },
      "subject": {
        "reference": "Patient/0ef36c93-9547-4238-a59e-3f7c2fa37293"
      },
      "performedDateTime": "2026-04-13T11:00:00.000+00:00"
    },
    "request": {
      "method": "PUT",
      "url": "Procedure/3eb61744-4920-42e1-85c4-cc12845ac201"
    }
  }, {
    "fullUrl": "https://madie.cms.gov/MeasureReport/5a860f41-fe9e-403c-8436-f1bbd473ffce",
    "resource": {
      "resourceType": "MeasureReport",
      "id": "5a860f41-fe9e-403c-8436-f1bbd473ffce",
      "meta": {
        "profile": [ "http://hl7.org/fhir/us/cqfmeasures/StructureDefinition/test-case-cqfm" ]
      },
      "contained": [ {
        "resourceType": "Parameters",
        "id": "7d7604f7-31ca-44fe-97a5-c4488729f813-parameters",
        "parameter": [ {
          "name": "subject",
          "valueString": "0ef36c93-9547-4238-a59e-3f7c2fa37293"
        } ]
      } ],
      "extension": [ {
        "url": "http://hl7.org/fhir/StructureDefinition/cqf-inputParameters",
        "valueReference": {
          "reference": "#7d7604f7-31ca-44fe-97a5-c4488729f813-parameters"
        }
      }, {
        "url": "http://hl7.org/fhir/us/cqfmeasures/StructureDefinition/cqfm-testCaseDescription",
        "valueMarkdown": "Elective hospitalization with procedure (general anesthesia) within first 3 days of encounter. Extub >48 hrs after proc, no oxygen preceding. Meets Num3"
      } ],
      "modifierExtension": [ {
        "url": "http://hl7.org/fhir/us/cqfmeasures/StructureDefinition/cqfm-isTestCase",
        "valueBoolean": true
      } ],
      "status": "complete",
      "type": "individual",
      "measure": "https://madie.cms.gov/Measure/CMS1218FHIRHHRF",
      "period": {
        "start": "2026-01-01",
        "end": "2026-12-31"
      },
      "group": [ {
        "id": "Group_1",
        "population": [ {
          "id": "InitialPopulation_1",
          "code": {
            "coding": [ {
              "system": "http://terminology.hl7.org/CodeSystem/measure-population",
              "code": "initial-population",
              "display": "Initial Population"
            } ]
          },
          "count": 1
        }, {
          "id": "Denominator_1",
          "code": {
            "coding": [ {
              "system": "http://terminology.hl7.org/CodeSystem/measure-population",
              "code": "denominator",
              "display": "Denominator"
            } ]
          },
          "count": 1
        }, {
          "id": "DenominatorExclusion_1",
          "code": {
            "coding": [ {
              "system": "http://terminology.hl7.org/CodeSystem/measure-population",
              "code": "denominator-exclusion",
              "display": "Denominator Exclusion"
            } ]
          },
          "count": 0
        }, {
          "id": "Numerator_1",
          "code": {
            "coding": [ {
              "system": "http://terminology.hl7.org/CodeSystem/measure-population",
              "code": "numerator",
              "display": "Numerator"
            } ]
          },
          "count": 1
        } ],
        "measureScore": {
          "value": 0.0
        }
      } ],
      "evaluatedResource": [ {
        "reference": "Patient/0ef36c93-9547-4238-a59e-3f7c2fa37293"
      }, {
        "reference": "Encounter/7171809e-defe-4708-823f-459bb419ea09"
      }, {
        "reference": "Procedure/f94dffda-23d5-4ca6-bec1-e36f13b6ff51"
      }, {
        "reference": "Procedure/3eb61744-4920-42e1-85c4-cc12845ac201"
      } ]
    },
    "request": {
      "method": "PUT",
      "url": "MeasureReport/5a860f41-fe9e-403c-8436-f1bbd473ffce"
    }
  } ]
}