{
  "resourceType": "Bundle",
  "id": "tests-0ef36c93-9547-4238-a59e-3f7c2fa37293-bundle",
  "type": "transaction",
  "entry": [ {
    "fullUrl": "https://madie.cms.gov/Patient/3ad2c243-5601-463f-99cb-def89646e3c3",
    "resource": {
      "resourceType": "Patient",
      "id": "3ad2c243-5601-463f-99cb-def89646e3c3",
      "meta": {
        "profile": [ "http://hl7.org/fhir/us/qicore/StructureDefinition/qicore-patient" ]
      },
      "extension": [ {
        "url": "http://hl7.org/fhir/us/core/StructureDefinition/us-core-race",
        "extension": [ {
          "url": "ombCategory",
          "valueCoding": {
            "system": "urn:oid:2.16.840.1.113883.6.238",
            "code": "2054-5",
            "display": "Black or African American",
            "userSelected": true
          }
        }, {
          "url": "text",
          "valueString": "Black or African American"
        } ]
      }, {
        "url": "http://hl7.org/fhir/us/core/StructureDefinition/us-core-ethnicity",
        "extension": [ {
          "url": "ombCategory",
          "valueCoding": {
            "system": "urn:oid:2.16.840.1.113883.6.238",
            "code": "2186-5",
            "display": "Not Hispanic or Latino",
            "userSelected": true
          }
        }, {
          "url": "text",
          "valueString": "Not Hispanic or Latino"
        } ]
      } ],
      "identifier": [ {
        "type": {
          "coding": [ {
            "system": "http://terminology.hl7.org/CodeSystem/v2-0203",
            "code": "MR"
          } ]
        },
        "system": "https://bonnie-fhir.healthit.gov/",
        "value": "61152a3b98086b7a79cbd7c1"
      } ],
      "active": true,
      "name": [ {
        "use": "usual",
        "family": "NUMERPass",
        "given": [ "Num3EncWithExtubationGT48Hrs" ]
      } ],
      "gender": "female",
      "birthDate": "1966-07-12"
    },
    "request": {
      "method": "PUT",
      "url": "Patient/3ad2c243-5601-463f-99cb-def89646e3c3"
    }
  }, {
    "fullUrl": "https://madie.cms.gov/Encounter/ce943da0-3ec4-48b8-ad20-8647f34fe684",
    "resource": {
      "resourceType": "Encounter",
      "id": "ce943da0-3ec4-48b8-ad20-8647f34fe684",
      "meta": {
        "profile": [ "http://hl7.org/fhir/us/qicore/StructureDefinition/qicore-encounter" ]
      },
      "status": "finished",
      "class": {
        "system": "http://terminology.hl7.org/CodeSystem/v3-ActCode",
        "code": "IMP",
        "display": "inpatient encounter"
      },
      "type": [ {
        "coding": [ {
          "system": "http://snomed.info/sct",
          "code": "112689000",
          "display": "Hospital admission, elective, with complete pre-admission work-up"
        } ],
        "text": "Hospital admission, elective, with complete pre-admission work-up"
      } ],
      "priority": {
        "coding": [ {
          "system": "http://snomed.info/sct",
          "code": "103390000"
        } ]
      },
      "subject": {
        "reference": "Patient/3ad2c243-5601-463f-99cb-def89646e3c3"
      },
      "period": {
        "start": "2026-04-10T08:00:00.000+00:00",
        "end": "2026-04-14T08:15:00.000+00:00"
      }
    },
    "request": {
      "method": "PUT",
      "url": "Encounter/ce943da0-3ec4-48b8-ad20-8647f34fe684"
    }
  }, {
    "fullUrl": "https://madie.cms.gov/Procedure/d6abb76e-4496-45fa-bd3b-4bb2354de909",
    "resource": {
      "resourceType": "Procedure",
      "id": "d6abb76e-4496-45fa-bd3b-4bb2354de909",
      "meta": {
        "profile": [ "http://hl7.org/fhir/us/qicore/StructureDefinition/qicore-procedure" ]
      },
      "extension": [ {
        "url": "http://hl7.org/fhir/us/qicore/StructureDefinition/qicore-recorded",
        "valueDateTime": "2026-04-11T10:20:00.000+00:00"
      } ],
      "status": "completed",
      "category": {
        "coding": [ {
          "system": "http://snomed.info/sct",
          "code": "18286008",
          "display": "General or neuraxial anesthesia"
        } ]
      },
      "code": {
        "coding": [ {
          "system": "http://snomed.info/sct",
          "code": "112943005",
          "display": "Epidural injection of anesthetic substance,  diagnostic, caudal, continuous"
        } ]
      },
      "subject": {
        "reference": "Patient/3ad2c243-5601-463f-99cb-def89646e3c3"
      },
      "performedPeriod": {
        "start": "2026-04-11T08:00:00.000+00:00",
        "end": "2026-04-11T11:15:00.000+00:00"
      }
    },
    "request": {
      "method": "PUT",
      "url": "Procedure/d6abb76e-4496-45fa-bd3b-4bb2354de909"
    }
  }, {
    "fullUrl": "https://madie.cms.gov/Procedure/5c80d621-e451-43ff-991e-524fdd29707c",
    "resource": {
      "resourceType": "Procedure",
      "id": "5c80d621-e451-43ff-991e-524fdd29707c",
      "meta": {
        "profile": [ "http://hl7.org/fhir/us/qicore/StructureDefinition/qicore-procedure" ]
      },
      "extension": [ {
        "url": "http://hl7.org/fhir/us/qicore/StructureDefinition/qicore-recorded",
        "valueDateTime": "2026-04-21T12:00:00.000+00:00"
      } ],
      "status": "completed",
      "code": {
        "coding": [ {
          "system": "http://snomed.info/sct",
          "code": "271280005",
          "display": "Removal of endotracheal tube (procedure)"
        } ],
        "text": "Removal of endotracheal tube (procedure)"
      },
      "subject": {
        "reference": "Patient/3ad2c243-5601-463f-99cb-def89646e3c3"
      },
      "performedDateTime": "2026-04-11T11:55:00.000+00:00"
    },
    "request": {
      "method": "PUT",
      "url": "Procedure/5c80d621-e451-43ff-991e-524fdd29707c"
    }
  }, {
    "fullUrl": "https://madie.cms.gov/Procedure/641c67c1-05ed-4013-b828-073e9a28ba76",
    "resource": {
      "resourceType": "Procedure",
      "id": "641c67c1-05ed-4013-b828-073e9a28ba76",
      "meta": {
        "profile": [ "http://hl7.org/fhir/us/qicore/StructureDefinition/qicore-procedure" ]
      },
      "extension": [ {
        "url": "http://hl7.org/fhir/us/qicore/StructureDefinition/qicore-recorded",
        "valueDateTime": "2026-04-21T12:00:00.000+00:00"
      } ],
      "status": "completed",
      "code": {
        "coding": [ {
          "system": "http://snomed.info/sct",
          "version": "2023-09",
          "code": "304577004",
          "display": "Humidified oxygen therapy (procedure)"
        } ],
        "text": "Humidified oxygen therapy (procedure)"
      },
      "subject": {
        "reference": "Patient/3ad2c243-5601-463f-99cb-def89646e3c3"
      },
      "performedDateTime": "2026-04-11T11:45:00.000+00:00"
    },
    "request": {
      "method": "PUT",
      "url": "Procedure/641c67c1-05ed-4013-b828-073e9a28ba76"
    }
  }, {
    "fullUrl": "https://madie.cms.gov/MeasureReport/fbc4312f-987b-4b31-b694-1685fbbb1562",
    "resource": {
      "resourceType": "MeasureReport",
      "id": "fbc4312f-987b-4b31-b694-1685fbbb1562",
      "meta": {
        "profile": [ "http://hl7.org/fhir/us/cqfmeasures/StructureDefinition/test-case-cqfm" ]
      },
      "contained": [ {
        "resourceType": "Parameters",
        "id": "bbcc15c4-6f7a-4c90-962d-a372ac51241f-parameters",
        "parameter": [ {
          "name": "subject",
          "valueString": "3ad2c243-5601-463f-99cb-def89646e3c3"
        } ]
      } ],
      "extension": [ {
        "url": "http://hl7.org/fhir/StructureDefinition/cqf-inputParameters",
        "valueReference": {
          "reference": "#bbcc15c4-6f7a-4c90-962d-a372ac51241f-parameters"
        }
      }, {
        "url": "http://hl7.org/fhir/us/cqfmeasures/StructureDefinition/cqfm-testCaseDescription",
        "valueMarkdown": "Existing Extubation with preceding Noninvasive Oxygen causes numerator to fail."
      } ],
      "modifierExtension": [ {
        "url": "http://hl7.org/fhir/us/cqfmeasures/StructureDefinition/cqfm-isTestCase",
        "valueBoolean": true
      } ],
      "status": "complete",
      "type": "individual",
      "measure": "https://madie.cms.gov/Measure/CMS1218FHIRHHRF",
      "period": {
        "start": "2026-01-01",
        "end": "2026-12-31"
      },
      "group": [ {
        "id": "Group_1",
        "population": [ {
          "id": "InitialPopulation_1",
          "code": {
            "coding": [ {
              "system": "http://terminology.hl7.org/CodeSystem/measure-population",
              "code": "initial-population",
              "display": "Initial Population"
            } ]
          },
          "count": 1
        }, {
          "id": "Denominator_1",
          "code": {
            "coding": [ {
              "system": "http://terminology.hl7.org/CodeSystem/measure-population",
              "code": "denominator",
              "display": "Denominator"
            } ]
          },
          "count": 1
        }, {
          "id": "DenominatorExclusion_1",
          "code": {
            "coding": [ {
              "system": "http://terminology.hl7.org/CodeSystem/measure-population",
              "code": "denominator-exclusion",
              "display": "Denominator Exclusion"
            } ]
          },
          "count": 0
        }, {
          "id": "Numerator_1",
          "code": {
            "coding": [ {
              "system": "http://terminology.hl7.org/CodeSystem/measure-population",
              "code": "numerator",
              "display": "Numerator"
            } ]
          },
          "count": 0
        } ],
        "measureScore": {
          "value": 0.0
        }
      } ],
      "evaluatedResource": [ {
        "reference": "Patient/3ad2c243-5601-463f-99cb-def89646e3c3"
      }, {
        "reference": "Encounter/ce943da0-3ec4-48b8-ad20-8647f34fe684"
      }, {
        "reference": "Procedure/d6abb76e-4496-45fa-bd3b-4bb2354de909"
      }, {
        "reference": "Procedure/5c80d621-e451-43ff-991e-524fdd29707c"
      }, {
        "reference": "Procedure/641c67c1-05ed-4013-b828-073e9a28ba76"
      } ]
    },
    "request": {
      "method": "PUT",
      "url": "MeasureReport/fbc4312f-987b-4b31-b694-1685fbbb1562"
    }
  } ]
}