{
  "resourceType": "Bundle",
  "id": "tests-c6e6306d-e742-488e-8bde-71c1a8e1b0c1-bundle",
  "type": "transaction",
  "entry": [ {
    "fullUrl": "https://madie.cms.gov/Encounter/77c3bfca-f7af-4722-8f7f-38d3137788be",
    "resource": {
      "resourceType": "Encounter",
      "id": "77c3bfca-f7af-4722-8f7f-38d3137788be",
      "meta": {
        "profile": [ "http://hl7.org/fhir/us/qicore/StructureDefinition/qicore-encounter" ]
      },
      "status": "finished",
      "class": {
        "system": "http://terminology.hl7.org/CodeSystem/v3-ActCode",
        "code": "IMP",
        "display": "inpatient encounter"
      },
      "type": [ {
        "coding": [ {
          "system": "http://snomed.info/sct",
          "code": "112689000",
          "display": "Hospital admission, elective, with complete pre-admission work-up"
        } ],
        "text": "Hospital admission, elective, with complete pre-admission work-up"
      } ],
      "priority": {
        "coding": [ {
          "system": "http://snomed.info/sct",
          "code": "103390000"
        } ]
      },
      "subject": {
        "reference": "Patient/c6e6306d-e742-488e-8bde-71c1a8e1b0c1"
      },
      "period": {
        "start": "2026-04-10T08:00:00.000+00:00",
        "end": "2026-04-14T08:15:00.000+00:00"
      },
      "diagnosis": [ {
        "condition": {
          "reference": "Procedure/9b76793d-6273-4f9a-a297-338381e2dcb0"
        },
        "rank": 1
      } ]
    },
    "request": {
      "method": "PUT",
      "url": "Encounter/77c3bfca-f7af-4722-8f7f-38d3137788be"
    }
  }, {
    "fullUrl": "https://madie.cms.gov/MeasureReport/00946f50-b4f5-4964-ad5d-fc614550caec",
    "resource": {
      "resourceType": "MeasureReport",
      "id": "00946f50-b4f5-4964-ad5d-fc614550caec",
      "meta": {
        "profile": [ "http://hl7.org/fhir/us/cqfmeasures/StructureDefinition/test-case-cqfm" ]
      },
      "contained": [ {
        "resourceType": "Parameters",
        "id": "208a51f3-0abb-44c5-aad3-ca727e467fd3-parameters",
        "parameter": [ {
          "name": "subject",
          "valueString": "c6e6306d-e742-488e-8bde-71c1a8e1b0c1"
        } ]
      } ],
      "extension": [ {
        "url": "http://hl7.org/fhir/us/cqfmeasures/StructureDefinition/cqfm-inputParameters",
        "valueReference": {
          "reference": "#208a51f3-0abb-44c5-aad3-ca727e467fd3-parameters"
        }
      }, {
        "url": "http://hl7.org/fhir/us/cqfmeasures/StructureDefinition/cqfm-testCaseDescription",
        "valueMarkdown": "Elective hospitalization with proc (general anesthesia) within first 3 days of encounter. But has ED visit which ends 1 hour + 1 minute before start of IP enc. Will only fail IPP if ED visit ends < 1 hour or on start of IP start. IPP/Denom Pass."
      } ],
      "modifierExtension": [ {
        "url": "http://hl7.org/fhir/us/cqfmeasures/StructureDefinition/cqfm-isTestCase",
        "valueBoolean": true
      } ],
      "status": "complete",
      "type": "individual",
      "measure": "https://madie.cms.gov/Measure/CMS1218HHRFFHIR",
      "period": {
        "start": "2026-01-01",
        "end": "2026-12-31"
      },
      "group": [ {
        "id": "67520e47670f1c0879cef598",
        "population": [ {
          "id": "EBD61368-EDA1-4A7F-B134-48A501C47028",
          "code": {
            "coding": [ {
              "system": "http://terminology.hl7.org/CodeSystem/measure-population",
              "code": "initial-population",
              "display": "Initial Population"
            } ]
          },
          "count": 1
        }, {
          "id": "A15EB430-6645-42AC-8FCE-0FF0BF0B4749",
          "code": {
            "coding": [ {
              "system": "http://terminology.hl7.org/CodeSystem/measure-population",
              "code": "denominator",
              "display": "Denominator"
            } ]
          },
          "count": 1
        }, {
          "id": "1389AFF6-741D-47CB-BED0-62D858980EE4",
          "code": {
            "coding": [ {
              "system": "http://terminology.hl7.org/CodeSystem/measure-population",
              "code": "denominator-exclusion",
              "display": "Denominator Exclusion"
            } ]
          },
          "count": 0
        }, {
          "id": "F1D273B8-1513-4C6E-B65F-22FD939174E6",
          "code": {
            "coding": [ {
              "system": "http://terminology.hl7.org/CodeSystem/measure-population",
              "code": "numerator",
              "display": "Numerator"
            } ]
          },
          "count": 0
        } ],
        "measureScore": {
          "value": 0
        }
      } ],
      "evaluatedResource": [ {
        "reference": "Encounter/77c3bfca-f7af-4722-8f7f-38d3137788be"
      }, {
        "reference": "Encounter/8b48a552-516c-46df-8583-7efdfad2cf2a"
      }, {
        "reference": "Patient/c6e6306d-e742-488e-8bde-71c1a8e1b0c1"
      }, {
        "reference": "Procedure/9b76793d-6273-4f9a-a297-338381e2dcb0"
      } ]
    },
    "request": {
      "method": "PUT",
      "url": "MeasureReport/00946f50-b4f5-4964-ad5d-fc614550caec"
    }
  }, {
    "fullUrl": "https://madie.cms.gov/Procedure/9b76793d-6273-4f9a-a297-338381e2dcb0",
    "resource": {
      "resourceType": "Procedure",
      "id": "9b76793d-6273-4f9a-a297-338381e2dcb0",
      "meta": {
        "profile": [ "http://hl7.org/fhir/us/qicore/StructureDefinition/qicore-procedure" ]
      },
      "extension": [ {
        "url": "http://hl7.org/fhir/us/qicore/StructureDefinition/qicore-recorded",
        "valueDateTime": "2026-04-11T10:30:00.000+00:00"
      } ],
      "status": "completed",
      "category": {
        "coding": [ {
          "system": "http://snomed.info/sct",
          "code": "18286008",
          "display": "General or neuraxial anesthesia"
        } ]
      },
      "code": {
        "coding": [ {
          "system": "http://snomed.info/sct",
          "code": "112943005",
          "display": "Epidural injection of anesthetic substance, diagnostic, caudal, continuous"
        } ]
      },
      "subject": {
        "reference": "Patient/c6e6306d-e742-488e-8bde-71c1a8e1b0c1"
      },
      "performedPeriod": {
        "start": "2026-04-11T08:00:00.000+00:00",
        "end": "2026-04-11T10:15:00.000+00:00"
      }
    },
    "request": {
      "method": "PUT",
      "url": "Procedure/9b76793d-6273-4f9a-a297-338381e2dcb0"
    }
  }, {
    "fullUrl": "https://madie.cms.gov/Encounter/8b48a552-516c-46df-8583-7efdfad2cf2a",
    "resource": {
      "resourceType": "Encounter",
      "id": "8b48a552-516c-46df-8583-7efdfad2cf2a",
      "meta": {
        "profile": [ "http://hl7.org/fhir/us/qicore/StructureDefinition/qicore-encounter" ]
      },
      "status": "finished",
      "class": {
        "system": "http://terminology.hl7.org/CodeSystem/v3-ActCode",
        "code": "IMP",
        "display": "inpatient encounter"
      },
      "type": [ {
        "coding": [ {
          "system": "http://snomed.info/sct",
          "code": "4525004",
          "display": "Emergency department patient visit"
        } ],
        "text": "Emergency department patient visit"
      } ],
      "subject": {
        "reference": "Patient/c6e6306d-e742-488e-8bde-71c1a8e1b0c1"
      },
      "period": {
        "start": "2026-04-09T08:00:00.000+00:00",
        "end": "2026-04-10T06:59:00.000+00:00"
      },
      "diagnosis": [ {
        "condition": {
          "reference": "Procedure/9b76793d-6273-4f9a-a297-338381e2dcb0"
        },
        "rank": 1
      } ]
    },
    "request": {
      "method": "PUT",
      "url": "Encounter/8b48a552-516c-46df-8583-7efdfad2cf2a"
    }
  }, {
    "fullUrl": "https://madie.cms.gov/Patient/c6e6306d-e742-488e-8bde-71c1a8e1b0c1",
    "resource": {
      "resourceType": "Patient",
      "id": "c6e6306d-e742-488e-8bde-71c1a8e1b0c1",
      "meta": {
        "profile": [ "http://hl7.org/fhir/us/qicore/StructureDefinition/qicore-patient" ]
      },
      "extension": [ {
        "url": "http://hl7.org/fhir/us/core/StructureDefinition/us-core-race",
        "extension": [ {
          "url": "ombCategory",
          "valueCoding": {
            "system": "urn:oid:2.16.840.1.113883.6.238",
            "code": "2054-5",
            "display": "Black or African American",
            "userSelected": true
          }
        }, {
          "url": "text",
          "valueString": "Black or African American"
        } ]
      }, {
        "url": "http://hl7.org/fhir/us/core/StructureDefinition/us-core-ethnicity",
        "extension": [ {
          "url": "ombCategory",
          "valueCoding": {
            "system": "urn:oid:2.16.840.1.113883.6.238",
            "code": "2186-5",
            "display": "Not Hispanic or Latino",
            "userSelected": true
          }
        }, {
          "url": "text",
          "valueString": "Not Hispanic or Latino"
        } ]
      }, {
        "url": "http://hl7.org/fhir/us/core/StructureDefinition/us-core-sex",
        "valueCode": "248152002"
      } ],
      "identifier": [ {
        "type": {
          "coding": [ {
            "system": "http://terminology.hl7.org/CodeSystem/v2-0203",
            "code": "MR"
          } ]
        },
        "system": "https://bonnie-fhir.healthit.gov/",
        "value": "61152a3b98086b7a79cbd7c1"
      } ],
      "active": true,
      "name": [ {
        "use": "usual",
        "family": "DENOMPass",
        "given": [ "EncWithEDVisitMoreThanOneHrPriorToIPStart" ]
      } ],
      "gender": "female",
      "birthDate": "1966-07-12"
    },
    "request": {
      "method": "PUT",
      "url": "Patient/c6e6306d-e742-488e-8bde-71c1a8e1b0c1"
    }
  }, {
    "fullUrl": "https://madie.cms.gov/MeasureReport/48eec56b-35f9-4161-8c0a-41f2a9c67a9f",
    "resource": {
      "resourceType": "MeasureReport",
      "id": "48eec56b-35f9-4161-8c0a-41f2a9c67a9f",
      "meta": {
        "profile": [ "http://hl7.org/fhir/us/cqfmeasures/StructureDefinition/test-case-cqfm" ]
      },
      "contained": [ {
        "resourceType": "Parameters",
        "id": "a0c9df50-2069-4685-b723-bf45d8c5786c-parameters",
        "parameter": [ {
          "name": "subject",
          "valueString": "c6e6306d-e742-488e-8bde-71c1a8e1b0c1"
        } ]
      } ],
      "extension": [ {
        "url": "http://hl7.org/fhir/StructureDefinition/cqf-inputParameters",
        "valueReference": {
          "reference": "#a0c9df50-2069-4685-b723-bf45d8c5786c-parameters"
        }
      }, {
        "url": "http://hl7.org/fhir/us/cqfmeasures/StructureDefinition/cqfm-testCaseDescription",
        "valueMarkdown": "Elective hospitalization with proc (general anesthesia) within first 3 days of encounter. But has ED visit which ends 1 hour + 1 minute before start of IP enc. Will only fail IPP if ED visit ends < 1 hour or on start of IP start. IPP/Denom Pass."
      } ],
      "modifierExtension": [ {
        "url": "http://hl7.org/fhir/us/cqfmeasures/StructureDefinition/cqfm-isTestCase",
        "valueBoolean": true
      } ],
      "status": "complete",
      "type": "individual",
      "measure": "https://madie.cms.gov/Measure/CMS1218FHIRHHRF",
      "period": {
        "start": "2026-01-01",
        "end": "2026-12-31"
      },
      "group": [ {
        "id": "Group_1",
        "population": [ {
          "id": "InitialPopulation_1",
          "code": {
            "coding": [ {
              "system": "http://terminology.hl7.org/CodeSystem/measure-population",
              "code": "initial-population",
              "display": "Initial Population"
            } ]
          },
          "count": 1
        }, {
          "id": "Denominator_1",
          "code": {
            "coding": [ {
              "system": "http://terminology.hl7.org/CodeSystem/measure-population",
              "code": "denominator",
              "display": "Denominator"
            } ]
          },
          "count": 1
        }, {
          "id": "DenominatorExclusion_1",
          "code": {
            "coding": [ {
              "system": "http://terminology.hl7.org/CodeSystem/measure-population",
              "code": "denominator-exclusion",
              "display": "Denominator Exclusion"
            } ]
          },
          "count": 0
        }, {
          "id": "Numerator_1",
          "code": {
            "coding": [ {
              "system": "http://terminology.hl7.org/CodeSystem/measure-population",
              "code": "numerator",
              "display": "Numerator"
            } ]
          },
          "count": 0
        } ],
        "measureScore": {
          "value": 0.0
        }
      } ],
      "evaluatedResource": [ {
        "reference": "Encounter/77c3bfca-f7af-4722-8f7f-38d3137788be"
      }, {
        "reference": "MeasureReport/00946f50-b4f5-4964-ad5d-fc614550caec"
      }, {
        "reference": "Procedure/9b76793d-6273-4f9a-a297-338381e2dcb0"
      }, {
        "reference": "Encounter/8b48a552-516c-46df-8583-7efdfad2cf2a"
      }, {
        "reference": "Patient/c6e6306d-e742-488e-8bde-71c1a8e1b0c1"
      } ]
    },
    "request": {
      "method": "PUT",
      "url": "MeasureReport/48eec56b-35f9-4161-8c0a-41f2a9c67a9f"
    }
  } ]
}