{
  "resourceType": "Bundle",
  "id": "tests-629f2165-c162-4ed7-901f-9056ed997beb-bundle",
  "type": "transaction",
  "entry": [ {
    "fullUrl": "https://madie.cms.gov/Procedure/6d804c37-858c-4550-a080-97d014fa7260",
    "resource": {
      "resourceType": "Procedure",
      "id": "6d804c37-858c-4550-a080-97d014fa7260",
      "meta": {
        "profile": [ "http://hl7.org/fhir/us/qicore/StructureDefinition/qicore-procedure" ]
      },
      "extension": [ {
        "url": "http://hl7.org/fhir/us/qicore/StructureDefinition/qicore-recorded",
        "valueDateTime": "2026-04-12T08:10:00.000+00:00"
      } ],
      "status": "completed",
      "category": {
        "coding": [ {
          "system": "http://snomed.info/sct",
          "code": "18286008",
          "display": "General or neuraxial anesthesia"
        } ]
      },
      "code": {
        "coding": [ {
          "system": "http://snomed.info/sct",
          "code": "112943005",
          "display": "Epidural injection of anesthetic substance, diagnostic, caudal, continuous"
        } ]
      },
      "subject": {
        "reference": "Patient/629f2165-c162-4ed7-901f-9056ed997beb"
      },
      "performedDateTime": "2026-04-12T08:00:00.000+00:00"
    },
    "request": {
      "method": "PUT",
      "url": "Procedure/6d804c37-858c-4550-a080-97d014fa7260"
    }
  }, {
    "fullUrl": "https://madie.cms.gov/Patient/629f2165-c162-4ed7-901f-9056ed997beb",
    "resource": {
      "resourceType": "Patient",
      "id": "629f2165-c162-4ed7-901f-9056ed997beb",
      "meta": {
        "profile": [ "http://hl7.org/fhir/us/qicore/StructureDefinition/qicore-patient" ]
      },
      "extension": [ {
        "url": "http://hl7.org/fhir/us/core/StructureDefinition/us-core-race",
        "extension": [ {
          "url": "ombCategory",
          "valueCoding": {
            "system": "urn:oid:2.16.840.1.113883.6.238",
            "code": "2054-5",
            "display": "Black or African American",
            "userSelected": true
          }
        }, {
          "url": "text",
          "valueString": "Black or African American"
        } ]
      }, {
        "url": "http://hl7.org/fhir/us/core/StructureDefinition/us-core-ethnicity",
        "extension": [ {
          "url": "ombCategory",
          "valueCoding": {
            "system": "urn:oid:2.16.840.1.113883.6.238",
            "code": "2186-5",
            "display": "Not Hispanic or Latino",
            "userSelected": true
          }
        }, {
          "url": "text",
          "valueString": "Not Hispanic or Latino"
        } ]
      } ],
      "identifier": [ {
        "type": {
          "coding": [ {
            "system": "http://terminology.hl7.org/CodeSystem/v2-0203",
            "code": "MR"
          } ]
        },
        "system": "https://bonnie-fhir.healthit.gov/",
        "value": "61152a3b98086b7a79cbd7c1"
      } ],
      "active": true,
      "name": [ {
        "use": "usual",
        "family": "DENEXFail",
        "given": [ "Pa02LT50EQFirstORstrt" ]
      } ],
      "gender": "female",
      "birthDate": "1966-07-12"
    },
    "request": {
      "method": "PUT",
      "url": "Patient/629f2165-c162-4ed7-901f-9056ed997beb"
    }
  }, {
    "fullUrl": "https://madie.cms.gov/Observation/4253dfd0-c743-40ec-a238-77509ae9a86d",
    "resource": {
      "resourceType": "Observation",
      "id": "4253dfd0-c743-40ec-a238-77509ae9a86d",
      "meta": {
        "profile": [ "http://hl7.org/fhir/us/qicore/StructureDefinition/qicore-observation-lab" ]
      },
      "status": "final",
      "category": [ {
        "coding": [ {
          "system": "http://terminology.hl7.org/CodeSystem/observation-category",
          "code": "laboratory",
          "display": "Laboratory"
        } ],
        "text": "Laboratory"
      } ],
      "code": {
        "coding": [ {
          "system": "http://loinc.org",
          "code": "2703-7",
          "display": "Oxygen [Partial pressure] in Arterial blood"
        } ],
        "text": "Oxygen [Partial pressure] in Arterial blood"
      },
      "subject": {
        "reference": "Patient/629f2165-c162-4ed7-901f-9056ed997beb"
      },
      "encounter": {
        "reference": "Encounter/78856f8c-90dd-4b8c-9fb9-3a442dd65683"
      },
      "effectiveDateTime": "2026-04-11T08:01:00.000+00:00",
      "valueQuantity": {
        "value": 49,
        "unit": "mmHg",
        "system": "http://unitsofmeasure.org",
        "code": "mm[Hg]"
      }
    },
    "request": {
      "method": "PUT",
      "url": "Observation/4253dfd0-c743-40ec-a238-77509ae9a86d"
    }
  }, {
    "fullUrl": "https://madie.cms.gov/Procedure/70bfa675-1830-4b6e-b759-2363f1f1cd98",
    "resource": {
      "resourceType": "Procedure",
      "id": "70bfa675-1830-4b6e-b759-2363f1f1cd98",
      "meta": {
        "profile": [ "http://hl7.org/fhir/us/qicore/StructureDefinition/qicore-procedure" ]
      },
      "extension": [ {
        "url": "http://hl7.org/fhir/us/qicore/StructureDefinition/qicore-recorded",
        "valueDateTime": "2026-04-11T08:30:00.000+00:00"
      } ],
      "status": "completed",
      "category": {
        "coding": [ {
          "system": "http://snomed.info/sct",
          "code": "18286008",
          "display": "General or neuraxial anesthesia"
        } ]
      },
      "code": {
        "coding": [ {
          "system": "http://snomed.info/sct",
          "code": "112943005",
          "display": "Epidural injection of anesthetic substance, diagnostic, caudal, continuous"
        } ]
      },
      "subject": {
        "reference": "Patient/629f2165-c162-4ed7-901f-9056ed997beb"
      },
      "performedDateTime": "2026-04-11T08:00:00.000+00:00"
    },
    "request": {
      "method": "PUT",
      "url": "Procedure/70bfa675-1830-4b6e-b759-2363f1f1cd98"
    }
  }, {
    "fullUrl": "https://madie.cms.gov/Encounter/78856f8c-90dd-4b8c-9fb9-3a442dd65683",
    "resource": {
      "resourceType": "Encounter",
      "id": "78856f8c-90dd-4b8c-9fb9-3a442dd65683",
      "meta": {
        "profile": [ "http://hl7.org/fhir/us/qicore/StructureDefinition/qicore-encounter" ]
      },
      "status": "finished",
      "class": {
        "system": "http://terminology.hl7.org/CodeSystem/v3-ActCode",
        "code": "IMP",
        "display": "inpatient encounter"
      },
      "type": [ {
        "coding": [ {
          "system": "http://snomed.info/sct",
          "code": "112689000",
          "display": "Hospital admission, elective, with complete pre-admission work-up"
        } ],
        "text": "Hospital admission, elective, with complete pre-admission work-up"
      } ],
      "priority": {
        "coding": [ {
          "system": "http://snomed.info/sct",
          "code": "103390000"
        } ]
      },
      "subject": {
        "reference": "Patient/629f2165-c162-4ed7-901f-9056ed997beb"
      },
      "period": {
        "start": "2026-04-10T08:00:00.000+00:00",
        "end": "2026-04-14T08:15:00.000+00:00"
      }
    },
    "request": {
      "method": "PUT",
      "url": "Encounter/78856f8c-90dd-4b8c-9fb9-3a442dd65683"
    }
  }, {
    "fullUrl": "https://madie.cms.gov/MeasureReport/5c6119af-da9c-4d16-9272-1fa59d3d67a8",
    "resource": {
      "resourceType": "MeasureReport",
      "id": "5c6119af-da9c-4d16-9272-1fa59d3d67a8",
      "meta": {
        "profile": [ "http://hl7.org/fhir/us/cqfmeasures/StructureDefinition/test-case-cqfm" ]
      },
      "contained": [ {
        "resourceType": "Parameters",
        "id": "5b1ffed1-48b7-41d2-97e2-b8eee8ef5a16-parameters",
        "parameter": [ {
          "name": "subject",
          "valueString": "629f2165-c162-4ed7-901f-9056ed997beb"
        } ]
      } ],
      "extension": [ {
        "url": "http://hl7.org/fhir/StructureDefinition/cqf-inputParameters",
        "valueReference": {
          "reference": "#5b1ffed1-48b7-41d2-97e2-b8eee8ef5a16-parameters"
        }
      }, {
        "url": "http://hl7.org/fhir/us/cqfmeasures/StructureDefinition/cqfm-testCaseDescription",
        "valueMarkdown": "Enc 1: Elective hosp with proc (anesthesia) within first 3 days of encounter. PaO2 <50 and within 48 hours of start of procedure. Meets Exc.\nEnc 2: Intubated outside of OR after first procedure. Meets Num 1. \nExc from enc 1 does not impact enc 2."
      } ],
      "modifierExtension": [ {
        "url": "http://hl7.org/fhir/us/cqfmeasures/StructureDefinition/cqfm-isTestCase",
        "valueBoolean": true
      } ],
      "status": "complete",
      "type": "individual",
      "measure": "https://madie.cms.gov/Measure/CMS1218FHIRHHRF",
      "period": {
        "start": "2026-01-01",
        "end": "2026-12-31"
      },
      "group": [ {
        "id": "Group_1",
        "population": [ {
          "id": "InitialPopulation_1",
          "code": {
            "coding": [ {
              "system": "http://terminology.hl7.org/CodeSystem/measure-population",
              "code": "initial-population",
              "display": "Initial Population"
            } ]
          },
          "count": 1
        }, {
          "id": "Denominator_1",
          "code": {
            "coding": [ {
              "system": "http://terminology.hl7.org/CodeSystem/measure-population",
              "code": "denominator",
              "display": "Denominator"
            } ]
          },
          "count": 1
        }, {
          "id": "DenominatorExclusion_1",
          "code": {
            "coding": [ {
              "system": "http://terminology.hl7.org/CodeSystem/measure-population",
              "code": "denominator-exclusion",
              "display": "Denominator Exclusion"
            } ]
          },
          "count": 0
        }, {
          "id": "Numerator_1",
          "code": {
            "coding": [ {
              "system": "http://terminology.hl7.org/CodeSystem/measure-population",
              "code": "numerator",
              "display": "Numerator"
            } ]
          },
          "count": 0
        } ],
        "measureScore": {
          "value": 0.0
        }
      } ],
      "evaluatedResource": [ {
        "reference": "Procedure/6d804c37-858c-4550-a080-97d014fa7260"
      }, {
        "reference": "Patient/629f2165-c162-4ed7-901f-9056ed997beb"
      }, {
        "reference": "Observation/4253dfd0-c743-40ec-a238-77509ae9a86d"
      }, {
        "reference": "Procedure/70bfa675-1830-4b6e-b759-2363f1f1cd98"
      }, {
        "reference": "Encounter/78856f8c-90dd-4b8c-9fb9-3a442dd65683"
      } ]
    },
    "request": {
      "method": "PUT",
      "url": "MeasureReport/5c6119af-da9c-4d16-9272-1fa59d3d67a8"
    }
  } ]
}