{
  "resourceType": "Bundle",
  "id": "tests-a40acaba-9191-4e65-8e32-cf3d48ec1964-bundle",
  "type": "transaction",
  "entry": [ {
    "fullUrl": "https://madie.cms.gov/Procedure/813d323f-2307-4be5-ac02-2ce38f1a1fc5",
    "resource": {
      "resourceType": "Procedure",
      "id": "813d323f-2307-4be5-ac02-2ce38f1a1fc5",
      "meta": {
        "profile": [ "http://hl7.org/fhir/us/qicore/StructureDefinition/qicore-procedure" ]
      },
      "extension": [ {
        "url": "http://hl7.org/fhir/us/qicore/StructureDefinition/qicore-recorded",
        "valueDateTime": "2026-04-11T10:30:00.000Z"
      } ],
      "status": "completed",
      "category": {
        "coding": [ {
          "system": "http://snomed.info/sct",
          "code": "18286008",
          "display": "General or neuraxial anesthesia"
        } ]
      },
      "code": {
        "coding": [ {
          "system": "http://snomed.info/sct",
          "code": "112943005",
          "display": "Epidural injection of anesthetic substance, diagnostic, caudal, continuous"
        } ]
      },
      "subject": {
        "reference": "Patient/a40acaba-9191-4e65-8e32-cf3d48ec1964"
      },
      "performedPeriod": {
        "start": "2026-04-11T08:00:00.000Z",
        "end": "2026-04-11T10:15:00.000Z"
      }
    },
    "request": {
      "method": "PUT",
      "url": "Procedure/813d323f-2307-4be5-ac02-2ce38f1a1fc5"
    }
  }, {
    "fullUrl": "https://madie.cms.gov/Patient/a40acaba-9191-4e65-8e32-cf3d48ec1964",
    "resource": {
      "resourceType": "Patient",
      "id": "a40acaba-9191-4e65-8e32-cf3d48ec1964",
      "meta": {
        "profile": [ "http://hl7.org/fhir/us/qicore/StructureDefinition/qicore-patient" ]
      },
      "extension": [ {
        "url": "http://hl7.org/fhir/us/core/StructureDefinition/us-core-race",
        "extension": [ {
          "url": "ombCategory",
          "valueCoding": {
            "system": "urn:oid:2.16.840.1.113883.6.238",
            "code": "2054-5",
            "display": "Black or African American",
            "userSelected": true
          }
        }, {
          "url": "text",
          "valueString": "Black or African American"
        } ]
      }, {
        "url": "http://hl7.org/fhir/us/core/StructureDefinition/us-core-ethnicity",
        "extension": [ {
          "url": "ombCategory",
          "valueCoding": {
            "system": "urn:oid:2.16.840.1.113883.6.238",
            "code": "2186-5",
            "display": "Not Hispanic or Latino",
            "userSelected": true
          }
        }, {
          "url": "text",
          "valueString": "Not Hispanic or Latino"
        } ]
      } ],
      "identifier": [ {
        "type": {
          "coding": [ {
            "system": "http://terminology.hl7.org/CodeSystem/v2-0203",
            "code": "MR"
          } ]
        },
        "system": "https://bonnie-fhir.healthit.gov/",
        "value": "61152a3b98086b7a79cbd7c1"
      } ],
      "active": true,
      "name": [ {
        "use": "usual",
        "family": "DENOMPass",
        "given": [ "RiskVariableSmokingStatus2BeforeEnc" ]
      } ],
      "gender": "female",
      "birthDate": "1966-07-12"
    },
    "request": {
      "method": "PUT",
      "url": "Patient/a40acaba-9191-4e65-8e32-cf3d48ec1964"
    }
  }, {
    "fullUrl": "https://madie.cms.gov/Observation/298b7fbd-0930-4625-bb7a-6dc9e89d2b27",
    "resource": {
      "resourceType": "Observation",
      "id": "298b7fbd-0930-4625-bb7a-6dc9e89d2b27",
      "meta": {
        "profile": [ "http://hl7.org/fhir/us/qicore/StructureDefinition/qicore-observation-lab" ]
      },
      "status": "final",
      "category": [ {
        "coding": [ {
          "system": "http://terminology.hl7.org/CodeSystem/observation-category",
          "code": "laboratory",
          "display": "Laboratory"
        } ],
        "text": "Laboratory"
      } ],
      "code": {
        "coding": [ {
          "system": "http://loinc.org",
          "code": "72166-2",
          "display": "Tobacco smoking status"
        } ],
        "text": "Tobacco smoking status "
      },
      "subject": {
        "reference": "Patient/a40acaba-9191-4e65-8e32-cf3d48ec1964"
      },
      "encounter": {
        "reference": "Encounter/d99cbef3-6b79-4af6-a62e-bc88d07d104e"
      },
      "effectiveDateTime": "2026-04-04T08:00:00.000Z",
      "valueQuantity": {
        "value": 12,
        "unit": "mmol/L",
        "system": "http://unitsofmeasure.org",
        "code": "mmol/L"
      }
    },
    "request": {
      "method": "PUT",
      "url": "Observation/298b7fbd-0930-4625-bb7a-6dc9e89d2b27"
    }
  }, {
    "fullUrl": "https://madie.cms.gov/Observation/8012f02a-81ed-4f46-a6a6-9e10747b13db",
    "resource": {
      "resourceType": "Observation",
      "id": "8012f02a-81ed-4f46-a6a6-9e10747b13db",
      "meta": {
        "profile": [ "http://hl7.org/fhir/us/qicore/StructureDefinition/qicore-observation-lab" ]
      },
      "status": "final",
      "category": [ {
        "coding": [ {
          "system": "http://terminology.hl7.org/CodeSystem/observation-category",
          "code": "laboratory",
          "display": "Laboratory"
        } ],
        "text": "Laboratory"
      } ],
      "code": {
        "coding": [ {
          "system": "http://loinc.org",
          "code": "72166-2",
          "display": "Tobacco smoking status"
        } ],
        "text": "Tobacco smoking status "
      },
      "subject": {
        "reference": "Patient/a40acaba-9191-4e65-8e32-cf3d48ec1964"
      },
      "encounter": {
        "reference": "Encounter/d99cbef3-6b79-4af6-a62e-bc88d07d104e"
      },
      "effectiveDateTime": "2026-04-07T08:00:00.000Z",
      "valueCodeableConcept": {
        "coding": [ {
          "system": "http://snomed.info/sct",
          "code": "230065006",
          "display": "Chain smoker (finding)"
        } ]
      }
    },
    "request": {
      "method": "PUT",
      "url": "Observation/8012f02a-81ed-4f46-a6a6-9e10747b13db"
    }
  }, {
    "fullUrl": "https://madie.cms.gov/Encounter/d99cbef3-6b79-4af6-a62e-bc88d07d104e",
    "resource": {
      "resourceType": "Encounter",
      "id": "d99cbef3-6b79-4af6-a62e-bc88d07d104e",
      "meta": {
        "profile": [ "http://hl7.org/fhir/us/qicore/StructureDefinition/qicore-encounter" ]
      },
      "status": "finished",
      "class": {
        "system": "http://terminology.hl7.org/CodeSystem/v3-ActCode",
        "code": "IMP",
        "display": "inpatient encounter"
      },
      "type": [ {
        "coding": [ {
          "system": "http://snomed.info/sct",
          "code": "112689000",
          "display": "Hospital admission, elective, with complete pre-admission work-up"
        } ],
        "text": "Hospital admission, elective, with complete pre-admission work-up"
      } ],
      "priority": {
        "coding": [ {
          "system": "http://snomed.info/sct",
          "code": "103390000"
        } ]
      },
      "subject": {
        "reference": "Patient/a40acaba-9191-4e65-8e32-cf3d48ec1964"
      },
      "period": {
        "start": "2026-04-10T08:00:00.000Z",
        "end": "2026-04-14T08:15:00.000Z"
      }
    },
    "request": {
      "method": "PUT",
      "url": "Encounter/d99cbef3-6b79-4af6-a62e-bc88d07d104e"
    }
  }, {
    "fullUrl": "https://madie.cms.gov/MeasureReport/a9d671e9-a544-4cb7-af5c-f4c28d8b7d20",
    "resource": {
      "resourceType": "MeasureReport",
      "id": "a9d671e9-a544-4cb7-af5c-f4c28d8b7d20",
      "meta": {
        "profile": [ "http://hl7.org/fhir/us/cqfmeasures/StructureDefinition/test-case-cqfm" ]
      },
      "contained": [ {
        "resourceType": "Parameters",
        "id": "d3796177-c898-4022-b823-50f25f36895c-parameters",
        "parameter": [ {
          "name": "subject",
          "valueString": "a40acaba-9191-4e65-8e32-cf3d48ec1964"
        } ]
      } ],
      "extension": [ {
        "url": "http://hl7.org/fhir/StructureDefinition/cqf-inputParameters",
        "valueReference": {
          "reference": "#d3796177-c898-4022-b823-50f25f36895c-parameters"
        }
      }, {
        "url": "http://hl7.org/fhir/us/cqfmeasures/StructureDefinition/cqfm-testCaseDescription",
        "valueMarkdown": "Elective hosp with proc (general anesthesia) within 3 days of encounter. 2 smoking status assessments before enc start. Result displays correctly from the latest one (most recent): : 230065006 Chain smoker"
      } ],
      "modifierExtension": [ {
        "url": "http://hl7.org/fhir/us/cqfmeasures/StructureDefinition/cqfm-isTestCase",
        "valueBoolean": true
      } ],
      "status": "complete",
      "type": "individual",
      "measure": "https://madie.cms.gov/Measure/CMS1218FHIRHHRF",
      "period": {
        "start": "2026-01-01",
        "end": "2026-12-31"
      },
      "group": [ {
        "id": "Group_1",
        "population": [ {
          "id": "InitialPopulation_1",
          "code": {
            "coding": [ {
              "system": "http://terminology.hl7.org/CodeSystem/measure-population",
              "code": "initial-population",
              "display": "Initial Population"
            } ]
          },
          "count": 1
        }, {
          "id": "Denominator_1",
          "code": {
            "coding": [ {
              "system": "http://terminology.hl7.org/CodeSystem/measure-population",
              "code": "denominator",
              "display": "Denominator"
            } ]
          },
          "count": 1
        }, {
          "id": "DenominatorExclusion_1",
          "code": {
            "coding": [ {
              "system": "http://terminology.hl7.org/CodeSystem/measure-population",
              "code": "denominator-exclusion",
              "display": "Denominator Exclusion"
            } ]
          },
          "count": 0
        }, {
          "id": "Numerator_1",
          "code": {
            "coding": [ {
              "system": "http://terminology.hl7.org/CodeSystem/measure-population",
              "code": "numerator",
              "display": "Numerator"
            } ]
          },
          "count": 0
        } ],
        "measureScore": {
          "value": 0.0
        }
      } ],
      "evaluatedResource": [ {
        "reference": "Procedure/813d323f-2307-4be5-ac02-2ce38f1a1fc5"
      }, {
        "reference": "Patient/a40acaba-9191-4e65-8e32-cf3d48ec1964"
      }, {
        "reference": "Observation/298b7fbd-0930-4625-bb7a-6dc9e89d2b27"
      }, {
        "reference": "Observation/8012f02a-81ed-4f46-a6a6-9e10747b13db"
      }, {
        "reference": "Encounter/d99cbef3-6b79-4af6-a62e-bc88d07d104e"
      } ]
    },
    "request": {
      "method": "PUT",
      "url": "MeasureReport/a9d671e9-a544-4cb7-af5c-f4c28d8b7d20"
    }
  } ]
}