{
  "resourceType": "Bundle",
  "id": "tests-8b5ce980-3136-459b-83e3-419ea37aee91-bundle",
  "type": "transaction",
  "entry": [ {
    "fullUrl": "https://madie.cms.gov/Procedure/3432a710-102f-40f1-9628-1f04b573d7a4",
    "resource": {
      "resourceType": "Procedure",
      "id": "3432a710-102f-40f1-9628-1f04b573d7a4",
      "meta": {
        "profile": [ "http://hl7.org/fhir/us/qicore/StructureDefinition/qicore-procedure" ]
      },
      "extension": [ {
        "url": "http://hl7.org/fhir/us/qicore/StructureDefinition/qicore-recorded",
        "valueDateTime": "2026-04-01T08:20:00.000+00:00"
      } ],
      "status": "completed",
      "category": {
        "coding": [ {
          "system": "http://snomed.info/sct",
          "code": "18286008",
          "display": "General or neuraxial anesthesia"
        } ]
      },
      "code": {
        "coding": [ {
          "system": "http://snomed.info/sct",
          "code": "112943005",
          "display": "Epidural injection of anesthetic substance, diagnostic, caudal, continuous"
        } ]
      },
      "subject": {
        "reference": "Patient/8b5ce980-3136-459b-83e3-419ea37aee91"
      },
      "performedPeriod": {
        "start": "2026-04-01T08:00:00.000+00:00",
        "end": "2026-04-01T08:15:00.000+00:00"
      }
    },
    "request": {
      "method": "PUT",
      "url": "Procedure/3432a710-102f-40f1-9628-1f04b573d7a4"
    }
  }, {
    "fullUrl": "https://madie.cms.gov/Procedure/060a93b1-1840-4323-814e-6333a9a0f406",
    "resource": {
      "resourceType": "Procedure",
      "id": "060a93b1-1840-4323-814e-6333a9a0f406",
      "meta": {
        "profile": [ "http://hl7.org/fhir/us/qicore/StructureDefinition/qicore-procedure" ]
      },
      "extension": [ {
        "url": "http://hl7.org/fhir/us/qicore/StructureDefinition/qicore-recorded",
        "valueDateTime": "2026-05-02T00:10:00.000+00:00"
      } ],
      "status": "completed",
      "code": {
        "coding": [ {
          "system": "http://www.cms.gov/Medicare/Coding/ICD10",
          "code": "0BH13EZ",
          "display": "Insertion of Endotracheal Airway into Trachea, Percutaneous Approach"
        } ],
        "text": "Insertion of Endotracheal Airway into Trachea, Percutaneous Approach"
      },
      "subject": {
        "reference": "Patient/8b5ce980-3136-459b-83e3-419ea37aee91"
      },
      "performedDateTime": "2026-05-02T00:00:00.000+00:00"
    },
    "request": {
      "method": "PUT",
      "url": "Procedure/060a93b1-1840-4323-814e-6333a9a0f406"
    }
  }, {
    "fullUrl": "https://madie.cms.gov/Patient/8b5ce980-3136-459b-83e3-419ea37aee91",
    "resource": {
      "resourceType": "Patient",
      "id": "8b5ce980-3136-459b-83e3-419ea37aee91",
      "meta": {
        "profile": [ "http://hl7.org/fhir/us/qicore/StructureDefinition/qicore-patient" ]
      },
      "extension": [ {
        "url": "http://hl7.org/fhir/us/core/StructureDefinition/us-core-race",
        "extension": [ {
          "url": "ombCategory",
          "valueCoding": {
            "system": "urn:oid:2.16.840.1.113883.6.238",
            "code": "2054-5",
            "display": "Black or African American",
            "userSelected": true
          }
        }, {
          "url": "text",
          "valueString": "Black or African American"
        } ]
      }, {
        "url": "http://hl7.org/fhir/us/core/StructureDefinition/us-core-ethnicity",
        "extension": [ {
          "url": "ombCategory",
          "valueCoding": {
            "system": "urn:oid:2.16.840.1.113883.6.238",
            "code": "2186-5",
            "display": "Not Hispanic or Latino",
            "userSelected": true
          }
        }, {
          "url": "text",
          "valueString": "Not Hispanic or Latino"
        } ]
      } ],
      "identifier": [ {
        "type": {
          "coding": [ {
            "system": "http://terminology.hl7.org/CodeSystem/v2-0203",
            "code": "MR"
          } ]
        },
        "system": "https://bonnie-fhir.healthit.gov/",
        "value": "61152a3b98086b7a79cbd7c1"
      } ],
      "active": true,
      "name": [ {
        "use": "usual",
        "family": "NUMER1Fail",
        "given": [ "Intub31DaysAftFirstOr" ]
      } ],
      "gender": "female",
      "birthDate": "1966-07-12"
    },
    "request": {
      "method": "PUT",
      "url": "Patient/8b5ce980-3136-459b-83e3-419ea37aee91"
    }
  }, {
    "fullUrl": "https://madie.cms.gov/Encounter/756d87d1-3d77-4cf9-9fda-8311b48b053c",
    "resource": {
      "resourceType": "Encounter",
      "id": "756d87d1-3d77-4cf9-9fda-8311b48b053c",
      "meta": {
        "profile": [ "http://hl7.org/fhir/us/qicore/StructureDefinition/qicore-encounter" ]
      },
      "status": "finished",
      "class": {
        "system": "http://terminology.hl7.org/CodeSystem/v3-ActCode",
        "code": "IMP",
        "display": "inpatient encounter"
      },
      "type": [ {
        "coding": [ {
          "system": "http://snomed.info/sct",
          "code": "112689000",
          "display": "Hospital admission, elective, with complete pre-admission work-up"
        } ],
        "text": "Hospital admission, elective, with complete pre-admission work-up"
      } ],
      "priority": {
        "coding": [ {
          "system": "http://snomed.info/sct",
          "code": "103390000"
        } ]
      },
      "subject": {
        "reference": "Patient/8b5ce980-3136-459b-83e3-419ea37aee91"
      },
      "period": {
        "start": "2026-04-01T06:00:00.000+00:00",
        "end": "2026-05-02T08:15:00.000+00:00"
      }
    },
    "request": {
      "method": "PUT",
      "url": "Encounter/756d87d1-3d77-4cf9-9fda-8311b48b053c"
    }
  }, {
    "fullUrl": "https://madie.cms.gov/MeasureReport/69608984-b4c0-48eb-ac45-68113ee6703e",
    "resource": {
      "resourceType": "MeasureReport",
      "id": "69608984-b4c0-48eb-ac45-68113ee6703e",
      "meta": {
        "profile": [ "http://hl7.org/fhir/us/cqfmeasures/StructureDefinition/test-case-cqfm" ]
      },
      "contained": [ {
        "resourceType": "Parameters",
        "id": "0f62d1e7-8448-4349-bc6e-7864ea8037d1-parameters",
        "parameter": [ {
          "name": "subject",
          "valueString": "8b5ce980-3136-459b-83e3-419ea37aee91"
        } ]
      } ],
      "extension": [ {
        "url": "http://hl7.org/fhir/StructureDefinition/cqf-inputParameters",
        "valueReference": {
          "reference": "#0f62d1e7-8448-4349-bc6e-7864ea8037d1-parameters"
        }
      }, {
        "url": "http://hl7.org/fhir/us/cqfmeasures/StructureDefinition/cqfm-testCaseDescription",
        "valueMarkdown": " Intubated 31 days after end of 1st procedure."
      } ],
      "modifierExtension": [ {
        "url": "http://hl7.org/fhir/us/cqfmeasures/StructureDefinition/cqfm-isTestCase",
        "valueBoolean": true
      } ],
      "status": "complete",
      "type": "individual",
      "measure": "https://madie.cms.gov/Measure/CMS1218FHIRHHRF",
      "period": {
        "start": "2026-01-01",
        "end": "2026-12-31"
      },
      "group": [ {
        "id": "Group_1",
        "population": [ {
          "id": "InitialPopulation_1",
          "code": {
            "coding": [ {
              "system": "http://terminology.hl7.org/CodeSystem/measure-population",
              "code": "initial-population",
              "display": "Initial Population"
            } ]
          },
          "count": 1
        }, {
          "id": "Denominator_1",
          "code": {
            "coding": [ {
              "system": "http://terminology.hl7.org/CodeSystem/measure-population",
              "code": "denominator",
              "display": "Denominator"
            } ]
          },
          "count": 1
        }, {
          "id": "DenominatorExclusion_1",
          "code": {
            "coding": [ {
              "system": "http://terminology.hl7.org/CodeSystem/measure-population",
              "code": "denominator-exclusion",
              "display": "Denominator Exclusion"
            } ]
          },
          "count": 0
        }, {
          "id": "Numerator_1",
          "code": {
            "coding": [ {
              "system": "http://terminology.hl7.org/CodeSystem/measure-population",
              "code": "numerator",
              "display": "Numerator"
            } ]
          },
          "count": 0
        } ],
        "measureScore": {
          "value": 0.0
        }
      } ],
      "evaluatedResource": [ {
        "reference": "Procedure/3432a710-102f-40f1-9628-1f04b573d7a4"
      }, {
        "reference": "Procedure/060a93b1-1840-4323-814e-6333a9a0f406"
      }, {
        "reference": "Patient/8b5ce980-3136-459b-83e3-419ea37aee91"
      }, {
        "reference": "Encounter/756d87d1-3d77-4cf9-9fda-8311b48b053c"
      } ]
    },
    "request": {
      "method": "PUT",
      "url": "MeasureReport/69608984-b4c0-48eb-ac45-68113ee6703e"
    }
  } ]
}